Data from 0min_Absorbance_12-03-13-232.txt Node
Date: Thu Feb 02 12:03:13 EST 2023
User: UV-vis
Spectrometer: FLMS04918
Trigger mode: 0
Integration Time (sec): 1.850000E-3
Scans to average: 10
Electric dark correction enabled: true
Nonlinearity correction enabled: false
Boxcar width: 10
XAxis mode: Wavelengths
Number of Pixels in Spectrum: 2048
>>>>>Begin Spectral Data<<<<<
179.23	-0
179.611	-0.99817
179.992	-1.65539
180.373	-0
180.754	-0
181.134	-0
181.515	-0
181.896	-0
182.276	-0
182.657	-0
183.038	-0
183.418	-0
183.799	-0
184.179	-0.13271
184.56	0.06401
184.94	0.02591
185.32	0.02811
185.701	0.02164
186.081	0.02591
186.461	0.0221
186.842	0.02742
187.222	0.03132
187.602	0.03136
187.982	0.03112
188.362	0.03455
188.742	0.0309
189.122	0.028
189.502	0.03116
189.882	0.02997
190.262	0.03003
190.642	0.02991
191.022	0.03105
191.402	0.03
191.781	0.03141
192.161	0.03315
192.541	0.03109
192.92	0.03284
193.3	0.03283
193.68	0.03273
194.059	0.03285
194.439	0.03771
194.818	0.03667
195.198	0.03438
195.577	0.03391
195.957	0.03751
196.336	0.03814
196.715	0.03715
197.094	0.03513
197.474	0.03544
197.853	0.03788
198.232	0.03682
198.611	0.03688
198.99	0.03591
199.369	0.03791
199.748	0.03865
200.127	0.03572
200.506	0.03448
200.885	0.03415
201.264	0.03445
201.643	0.03351
202.022	0.03325
202.401	0.03034
202.779	0.03014
203.158	0.03238
203.537	0.03371
203.915	0.03125
204.294	0.03037
204.673	0.03026
205.051	0.03435
205.43	0.03037
205.808	0.02809
206.187	0.02939
206.565	0.02867
206.943	0.0281
207.322	0.02823
207.7	0.02792
208.078	0.03107
208.456	0.03287
208.835	0.03465
209.213	0.03464
209.591	0.03629
209.969	0.03365
210.347	0.03245
210.725	0.03369
211.103	0.03243
211.481	0.03436
211.859	0.03548
212.237	0.03386
212.614	0.03572
212.992	0.0354
213.37	0.03788
213.748	0.04098
214.125	0.04278
214.503	0.04608
214.881	0.04787
215.258	0.04626
215.636	0.04626
216.013	0.04569
216.391	0.04587
216.768	0.04497
217.145	0.04675
217.523	0.04684
217.9	0.04936
218.277	0.05024
218.655	0.05067
219.032	0.05108
219.409	0.04926
219.786	0.04714
220.163	0.04786
220.54	0.04862
220.917	0.04778
221.294	0.04716
221.671	0.04511
222.048	0.04287
222.425	0.03998
222.802	0.03881
223.179	0.03894
223.556	0.03975
223.932	0.03859
224.309	0.03924
224.686	0.03772
225.062	0.03537
225.439	0.03472
225.815	0.0349
226.192	0.03535
226.568	0.03403
226.945	0.0348
227.321	0.03265
227.698	0.03435
228.074	0.03632
228.45	0.03597
228.827	0.03802
229.203	0.03941
229.579	0.03896
229.955	0.04048
230.331	0.04113
230.707	0.04065
231.083	0.04364
231.46	0.04388
231.835	0.04366
232.211	0.04289
232.587	0.04509
232.963	0.04682
233.339	0.04486
233.715	0.04465
234.091	0.04444
234.466	0.04615
234.842	0.04598
235.218	0.04742
235.593	0.04729
235.969	0.04654
236.344	0.04858
236.72	0.0488
237.095	0.04907
237.471	0.05102
237.846	0.05173
238.222	0.05087
238.597	0.05194
238.972	0.0508
239.348	0.0485
239.723	0.05043
240.098	0.04947
240.473	0.04859
240.848	0.0489
241.223	0.05234
241.598	0.05347
241.973	0.05494
242.348	0.05188
242.723	0.05235
243.098	0.05429
243.473	0.05346
243.848	0.0541
244.223	0.05268
244.597	0.05177
244.972	0.05045
245.347	0.05102
245.721	0.05249
246.096	0.05491
246.47	0.05628
246.845	0.05614
247.219	0.0581
247.594	0.0573
247.968	0.05889
248.343	0.05852
248.717	0.05793
249.091	0.05743
249.466	0.0595
249.84	0.06049
250.214	0.06133
250.588	0.06185
250.962	0.06086
251.336	0.06038
251.71	0.06014
252.084	0.06018
252.458	0.05941
252.832	0.06226
253.206	0.0606
253.58	0.05954
253.954	0.0597
254.328	0.05879
254.702	0.06098
255.075	0.05876
255.449	0.05764
255.823	0.0575
256.196	0.05904
256.57	0.05965
256.943	0.0617
257.317	0.05973
257.69	0.06008
258.064	0.06096
258.437	0.06191
258.81	0.06211
259.184	0.06516
259.557	0.06602
259.93	0.06782
260.303	0.0689
260.677	0.0672
261.05	0.06875
261.423	0.06713
261.796	0.06674
262.169	0.06753
262.542	0.06502
262.915	0.06768
263.288	0.06901
263.661	0.06904
264.033	0.06981
264.406	0.06865
264.779	0.06724
265.152	0.06814
265.524	0.06787
265.897	0.06816
266.27	0.06569
266.642	0.06573
267.015	0.06492
267.387	0.06617
267.76	0.06486
268.132	0.06517
268.504	0.06614
268.877	0.06649
269.249	0.06733
269.621	0.06723
269.994	0.06718
270.366	0.06854
270.738	0.06835
271.11	0.06932
271.482	0.06952
271.854	0.07031
272.226	0.07132
272.598	0.07125
272.97	0.0733
273.342	0.07198
273.714	0.07321
274.086	0.07478
274.458	0.07375
274.829	0.07577
275.201	0.07601
275.573	0.07612
275.944	0.07675
276.316	0.07777
276.688	0.08015
277.059	0.08213
277.431	0.08369
277.802	0.08511
278.173	0.08737
278.545	0.09108
278.916	0.09588
279.287	0.10078
279.659	0.10713
280.03	0.11607
280.401	0.12437
280.772	0.13111
281.143	0.13676
281.515	0.14083
281.886	0.14399
282.257	0.14691
282.628	0.14807
282.998	0.14922
283.369	0.1498
283.74	0.1498
284.111	0.1498
284.482	0.14947
284.853	0.14884
285.223	0.14829
285.594	0.14757
285.965	0.14683
286.335	0.14565
286.706	0.14443
287.076	0.14329
287.447	0.14223
287.817	0.14081
288.188	0.13943
288.558	0.13795
288.928	0.13631
289.299	0.1346
289.669	0.1328
290.039	0.13086
290.409	0.12891
290.779	0.12684
291.149	0.12466
291.52	0.12271
291.89	0.12069
292.26	0.11863
292.629	0.11663
292.999	0.11457
293.369	0.11266
293.739	0.11068
294.109	0.10895
294.479	0.10716
294.848	0.10543
295.218	0.10358
295.588	0.10189
295.957	0.10014
296.327	0.09846
296.696	0.09673
297.066	0.09494
297.435	0.09324
297.805	0.0914
298.174	0.08954
298.544	0.08761
298.913	0.08576
299.282	0.08382
299.651	0.08192
300.021	0.08005
300.39	0.07828
300.759	0.07657
301.128	0.07492
301.497	0.07344
301.866	0.07207
302.235	0.07069
302.604	0.06937
302.973	0.06805
303.342	0.06675
303.71	0.06546
304.079	0.06395
304.448	0.06258
304.817	0.06105
305.185	0.05944
305.554	0.05782
305.923	0.05619
306.291	0.05454
306.66	0.05298
307.028	0.05154
307.397	0.04996
307.765	0.04854
308.133	0.04703
308.502	0.04566
308.87	0.0441
309.238	0.04263
309.606	0.04115
309.975	0.03977
310.343	0.03844
310.711	0.03723
311.079	0.03605
311.447	0.03493
311.815	0.034
312.183	0.03312
312.551	0.03251
312.919	0.03194
313.286	0.03156
313.654	0.03135
314.022	0.03133
314.39	0.03137
314.757	0.03136
315.125	0.0315
315.492	0.03153
315.86	0.0315
316.228	0.03133
316.595	0.03132
316.962	0.03111
317.33	0.03081
317.697	0.03051
318.065	0.03012
318.432	0.02961
318.799	0.02919
319.166	0.02867
319.534	0.02813
319.901	0.02762
320.268	0.0271
320.635	0.02669
321.002	0.02626
321.369	0.0258
321.736	0.02529
322.103	0.02474
322.47	0.02419
322.836	0.02366
323.203	0.02318
323.57	0.02275
323.937	0.02245
324.303	0.02213
324.67	0.02187
325.037	0.02162
325.403	0.02149
325.77	0.02137
326.136	0.02133
326.503	0.02123
326.869	0.02117
327.235	0.02123
327.602	0.02116
327.968	0.02111
328.334	0.02104
328.7	0.02095
329.067	0.02087
329.433	0.02077
329.799	0.02068
330.165	0.02065
330.531	0.02057
330.897	0.0205
331.263	0.02058
331.629	0.02066
331.995	0.02077
332.36	0.02096
332.726	0.02118
333.092	0.02133
333.458	0.02157
333.823	0.02183
334.189	0.02209
334.554	0.02245
334.92	0.02273
335.286	0.02314
335.651	0.02348
336.016	0.0239
336.382	0.02431
336.747	0.0247
337.113	0.02514
337.478	0.02558
337.843	0.02601
338.208	0.02649
338.573	0.02697
338.939	0.02745
339.304	0.02791
339.669	0.02846
340.034	0.02893
340.399	0.02951
340.764	0.03008
341.129	0.03064
341.493	0.03122
341.858	0.03182
342.223	0.03244
342.588	0.03315
342.952	0.03377
343.317	0.03447
343.682	0.03504
344.046	0.03568
344.411	0.03633
344.775	0.037
345.14	0.03766
345.504	0.03833
345.869	0.03902
346.233	0.03973
346.597	0.04036
346.962	0.04107
347.326	0.04171
347.69	0.04238
348.054	0.04296
348.418	0.04369
348.782	0.04426
349.146	0.04488
349.51	0.04554
349.874	0.04621
350.238	0.04677
350.602	0.04742
350.966	0.04811
351.33	0.04884
351.693	0.04951
352.057	0.05025
352.421	0.05099
352.784	0.05178
353.148	0.05252
353.512	0.0534
353.875	0.0542
354.239	0.05509
354.602	0.05597
354.966	0.0568
355.329	0.05777
355.692	0.05881
356.056	0.05979
356.419	0.06098
356.782	0.06211
357.145	0.06327
357.508	0.06435
357.871	0.06552
358.234	0.06665
358.597	0.06781
358.96	0.0691
359.323	0.07046
359.686	0.07173
360.049	0.07303
360.412	0.07428
360.775	0.0756
361.137	0.07681
361.5	0.07818
361.863	0.07963
362.225	0.08098
362.588	0.08254
362.951	0.08389
363.313	0.08527
363.675	0.08662
364.038	0.08794
364.4	0.08942
364.763	0.09073
365.125	0.09222
365.487	0.09364
365.849	0.09508
366.212	0.09667
366.574	0.09817
366.936	0.09956
367.298	0.10116
367.66	0.10273
368.022	0.10453
368.384	0.10621
368.746	0.10805
369.108	0.10984
369.469	0.11153
369.831	0.11329
370.193	0.11501
370.555	0.11688
370.916	0.11869
371.278	0.1206
371.64	0.12257
372.001	0.12445
372.363	0.12642
372.724	0.12842
373.086	0.13043
373.447	0.13244
373.808	0.13429
374.17	0.13614
374.531	0.13821
374.892	0.14019
375.253	0.14219
375.615	0.14418
375.976	0.14623
376.337	0.14823
376.698	0.15025
377.059	0.15242
377.42	0.15458
377.781	0.15682
378.141	0.15909
378.502	0.1615
378.863	0.16391
379.224	0.16633
379.585	0.1688
379.945	0.17134
380.306	0.17377
380.666	0.17632
381.027	0.17886
381.388	0.18147
381.748	0.18421
382.108	0.18681
382.469	0.18955
382.829	0.19237
383.19	0.19517
383.55	0.1981
383.91	0.20101
384.27	0.20399
384.63	0.20699
384.991	0.20996
385.351	0.21276
385.711	0.21565
386.071	0.21863
386.431	0.22168
386.791	0.22467
387.15	0.22772
387.51	0.23092
387.87	0.23396
388.23	0.23708
388.589	0.24031
388.949	0.24346
389.309	0.2467
389.668	0.25002
390.028	0.25328
390.387	0.25663
390.747	0.26008
391.106	0.26356
391.466	0.2671
391.825	0.27088
392.184	0.27457
392.544	0.27838
392.903	0.28243
393.262	0.28623
393.621	0.29027
393.98	0.29445
394.339	0.29867
394.698	0.30299
395.057	0.30728
395.416	0.31186
395.775	0.31647
396.134	0.32124
396.493	0.32623
396.852	0.33116
397.211	0.33613
397.569	0.34107
397.928	0.34604
398.287	0.35103
398.645	0.35613
399.004	0.36124
399.362	0.36626
399.721	0.37147
400.079	0.37686
400.438	0.38214
400.796	0.38795
401.154	0.39359
401.512	0.39937
401.871	0.40549
402.229	0.41167
402.587	0.41786
402.945	0.42403
403.303	0.43017
403.661	0.43619
404.019	0.44226
404.377	0.44835
404.735	0.45478
405.093	0.46127
405.451	0.46769
405.808	0.47404
406.166	0.48032
406.524	0.48664
406.882	0.49287
407.239	0.49903
407.597	0.50528
407.954	0.51149
408.312	0.51769
408.669	0.52418
409.027	0.53057
409.384	0.53698
409.741	0.54346
410.099	0.54975
410.456	0.55594
410.813	0.56182
411.17	0.5677
411.527	0.57367
411.884	0.57944
412.242	0.58536
412.599	0.59096
412.956	0.59659
413.312	0.60199
413.669	0.60749
414.026	0.61276
414.383	0.61794
414.74	0.623
415.096	0.62787
415.453	0.63276
415.81	0.63759
416.166	0.64217
416.523	0.64668
416.879	0.651
417.236	0.65491
417.592	0.65907
417.949	0.66295
418.305	0.66668
418.661	0.67007
419.018	0.67278
419.374	0.67568
419.73	0.67807
420.086	0.6804
420.442	0.68226
420.798	0.68391
421.154	0.68503
421.51	0.68595
421.866	0.68669
422.222	0.68712
422.578	0.68731
422.934	0.68716
423.29	0.68681
423.646	0.68613
424.001	0.68524
424.357	0.68407
424.713	0.68263
425.068	0.68084
425.424	0.67853
425.779	0.67626
426.135	0.67325
426.49	0.67009
426.845	0.66616
427.201	0.66213
427.556	0.65771
427.911	0.65351
428.266	0.64922
428.622	0.64475
428.977	0.64008
429.332	0.63558
429.687	0.63076
430.042	0.62589
430.397	0.62144
430.752	0.61633
431.107	0.61157
431.461	0.60689
431.816	0.60248
432.171	0.59773
432.526	0.59272
432.88	0.58774
433.235	0.58235
433.59	0.57701
433.944	0.57172
434.299	0.56632
434.653	0.56127
435.008	0.55612
435.362	0.55068
435.716	0.54509
436.071	0.53978
436.425	0.53471
436.779	0.52932
437.133	0.52326
437.487	0.51737
437.841	0.51092
438.195	0.505
438.549	0.49902
438.903	0.49279
439.257	0.48628
439.611	0.48006
439.965	0.47338
440.319	0.46682
440.673	0.46049
441.026	0.45382
441.38	0.44713
441.734	0.44061
442.087	0.43366
442.441	0.4271
442.794	0.42045
443.148	0.41412
443.501	0.40802
443.855	0.4015
444.208	0.39505
444.561	0.38922
444.915	0.38314
445.268	0.37711
445.621	0.37123
445.974	0.36516
446.327	0.35951
446.68	0.3539
447.033	0.34825
447.386	0.3432
447.739	0.3377
448.092	0.33241
448.445	0.32735
448.798	0.32201
449.15	0.31703
449.503	0.31215
449.856	0.30755
450.209	0.30295
450.561	0.29825
450.914	0.29362
451.266	0.28931
451.619	0.28499
451.971	0.28062
452.323	0.27624
452.676	0.2722
453.028	0.26805
453.38	0.26397
453.733	0.25948
454.085	0.2552
454.437	0.2509
454.789	0.2465
455.141	0.24239
455.493	0.23831
455.845	0.23419
456.197	0.23047
456.549	0.22667
456.901	0.223
457.253	0.21889
457.604	0.2152
457.956	0.21166
458.308	0.20786
458.659	0.20449
459.011	0.20095
459.362	0.19756
459.714	0.19431
460.065	0.19081
460.417	0.18774
460.768	0.18455
461.12	0.18156
461.471	0.17848
461.822	0.17546
462.173	0.1727
462.525	0.16987
462.876	0.1672
463.227	0.1645
463.578	0.16187
463.929	0.15917
464.28	0.15643
464.631	0.15383
464.982	0.15145
465.332	0.14901
465.683	0.14642
466.034	0.14393
466.385	0.14158
466.735	0.13915
467.086	0.1366
467.437	0.13457
467.787	0.13232
468.138	0.13025
468.488	0.12801
468.839	0.12592
469.189	0.12398
469.539	0.12201
469.89	0.12001
470.24	0.11766
470.59	0.11567
470.94	0.11367
471.29	0.11168
471.64	0.10985
471.99	0.10809
472.34	0.10595
472.69	0.10421
473.04	0.10273
473.39	0.10102
473.74	0.09923
474.09	0.09759
474.439	0.0962
474.789	0.09442
475.139	0.09276
475.488	0.09139
475.838	0.08995
476.188	0.08864
476.537	0.08705
476.886	0.08562
477.236	0.08425
477.585	0.08311
477.935	0.08186
478.284	0.08057
478.633	0.07933
478.982	0.07808
479.331	0.07706
479.68	0.07607
480.03	0.0747
480.379	0.07378
480.728	0.07279
481.076	0.07186
481.425	0.07088
481.774	0.06996
482.123	0.06909
482.472	0.06813
482.821	0.067
483.169	0.06613
483.518	0.0651
483.866	0.06422
484.215	0.06321
484.563	0.06236
484.912	0.06158
485.26	0.06071
485.609	0.05998
485.957	0.05928
486.305	0.05861
486.654	0.05758
487.002	0.05698
487.35	0.05642
487.698	0.05554
488.046	0.0548
488.394	0.05413
488.742	0.0533
489.09	0.05246
489.438	0.05175
489.786	0.05107
490.134	0.05035
490.482	0.04974
490.829	0.04924
491.177	0.04879
491.525	0.04822
491.872	0.04768
492.22	0.04696
492.567	0.04658
492.915	0.0461
493.262	0.04563
493.61	0.04517
493.957	0.04488
494.304	0.04436
494.652	0.0439
494.999	0.04352
495.346	0.04293
495.693	0.04244
496.04	0.0422
496.387	0.04183
496.734	0.04145
497.081	0.04131
497.428	0.04091
497.775	0.04059
498.122	0.0404
498.469	0.04012
498.816	0.0399
499.162	0.03969
499.509	0.03961
499.856	0.0392
500.202	0.03897
500.549	0.03876
500.895	0.03842
501.242	0.03793
501.588	0.03769
501.935	0.03753
502.281	0.03749
502.627	0.03744
502.973	0.03731
503.32	0.03728
503.666	0.03727
504.012	0.03707
504.358	0.03691
504.704	0.03688
505.05	0.03669
505.396	0.03651
505.742	0.03634
506.088	0.03625
506.433	0.03619
506.779	0.0359
507.125	0.0358
507.471	0.03563
507.816	0.0356
508.162	0.03566
508.507	0.03572
508.853	0.03569
509.198	0.03559
509.544	0.03545
509.889	0.03525
510.234	0.03515
510.58	0.03491
510.925	0.03501
511.27	0.03504
511.615	0.03489
511.96	0.035
512.306	0.03524
512.651	0.03511
512.996	0.03505
513.341	0.03526
513.685	0.03528
514.03	0.03552
514.375	0.03572
514.72	0.0358
515.065	0.03585
515.409	0.0357
515.754	0.03578
516.099	0.03577
516.443	0.03586
516.788	0.03585
517.132	0.03584
517.476	0.03588
517.821	0.03602
518.165	0.03579
518.51	0.03568
518.854	0.03567
519.198	0.0355
519.542	0.03532
519.886	0.03535
520.23	0.0353
520.574	0.03503
520.918	0.03487
521.262	0.03467
521.606	0.03432
521.95	0.03424
522.294	0.03404
522.638	0.03399
522.981	0.03396
523.325	0.03366
523.669	0.03333
524.012	0.03318
524.356	0.03309
524.699	0.03288
525.043	0.03275
525.386	0.03256
525.73	0.03232
526.073	0.03206
526.416	0.03182
526.76	0.03145
527.103	0.03118
527.446	0.0309
527.789	0.03058
528.132	0.03031
528.475	0.02991
528.818	0.02978
529.161	0.02939
529.504	0.0291
529.847	0.02854
530.19	0.02811
530.532	0.02792
530.875	0.02752
531.218	0.02694
531.56	0.0266
531.903	0.02604
532.246	0.02542
532.588	0.02496
532.93	0.0246
533.273	0.0241
533.615	0.02364
533.958	0.02317
534.3	0.02267
534.642	0.02221
534.984	0.0217
535.326	0.02108
535.669	0.02051
536.011	0.01991
536.353	0.01935
536.695	0.0186
537.037	0.01813
537.378	0.01744
537.72	0.01686
538.062	0.01631
538.404	0.01584
538.746	0.01518
539.087	0.01464
539.429	0.01399
539.77	0.01333
540.112	0.01267
540.454	0.01207
540.795	0.01129
541.136	0.01062
541.478	0.00994
541.819	0.00933
542.16	0.0088
542.502	0.00822
542.843	0.00765
543.184	0.007
543.525	0.00631
543.866	0.00575
544.207	0.00526
544.548	0.00471
544.889	0.00401
545.23	0.00342
545.571	0.00268
545.911	0.00206
546.252	0.00158
546.593	0.00113
546.934	0.00059
547.274	-0.00002
547.615	-0.00058
547.955	-0.00103
548.296	-0.00155
548.636	-0.00209
548.977	-0.00278
549.317	-0.00339
549.657	-0.00399
549.997	-0.00463
550.338	-0.00522
550.678	-0.00579
551.018	-0.00635
551.358	-0.00696
551.698	-0.00753
552.038	-0.00798
552.378	-0.00841
552.718	-0.0089
553.058	-0.00944
553.398	-0.01012
553.737	-0.01077
554.077	-0.01126
554.417	-0.01178
554.756	-0.01234
555.096	-0.01279
555.435	-0.01328
555.775	-0.01384
556.114	-0.01418
556.454	-0.01461
556.793	-0.0152
557.133	-0.01554
557.472	-0.01592
557.811	-0.01627
558.15	-0.01664
558.489	-0.01716
558.829	-0.01746
559.168	-0.01794
559.507	-0.01845
559.846	-0.01882
560.184	-0.01908
560.523	-0.01945
560.862	-0.01968
561.201	-0.0201
561.54	-0.02035
561.878	-0.02077
562.217	-0.02121
562.556	-0.02154
562.894	-0.02162
563.233	-0.02207
563.571	-0.02242
563.91	-0.02261
564.248	-0.02288
564.586	-0.02325
564.925	-0.02359
565.263	-0.02379
565.601	-0.02397
565.939	-0.0244
566.277	-0.02469
566.616	-0.02499
566.954	-0.02522
567.292	-0.02564
567.63	-0.02583
567.967	-0.02622
568.305	-0.02636
568.643	-0.02676
568.981	-0.02695
569.319	-0.02718
569.656	-0.02746
569.994	-0.02786
570.331	-0.02811
570.669	-0.02845
571.006	-0.02869
571.344	-0.02897
571.681	-0.02917
572.019	-0.02947
572.356	-0.02974
572.693	-0.02997
573.03	-0.03016
573.368	-0.0305
573.705	-0.03059
574.042	-0.03092
574.379	-0.03118
574.716	-0.0314
575.053	-0.03159
575.39	-0.03191
575.727	-0.03212
576.063	-0.03239
576.4	-0.03269
576.737	-0.03299
577.074	-0.03327
577.41	-0.03349
577.747	-0.03372
578.083	-0.03401
578.42	-0.03421
578.756	-0.03438
579.093	-0.03452
579.429	-0.03485
579.766	-0.03508
580.102	-0.03526
580.438	-0.03535
580.774	-0.03563
581.11	-0.03575
581.446	-0.0358
581.782	-0.03593
582.119	-0.03618
582.454	-0.03638
582.79	-0.03652
583.126	-0.03669
583.462	-0.03668
583.798	-0.0368
584.134	-0.03693
584.469	-0.03706
584.805	-0.03712
585.141	-0.03715
585.476	-0.03735
585.812	-0.03746
586.147	-0.03755
586.482	-0.03769
586.818	-0.03778
587.153	-0.03794
587.488	-0.03795
587.824	-0.03816
588.159	-0.03828
588.494	-0.03845
588.829	-0.03852
589.164	-0.03853
589.499	-0.03852
589.834	-0.03865
590.169	-0.03861
590.504	-0.03875
590.839	-0.03876
591.174	-0.03878
591.508	-0.03881
591.843	-0.03893
592.178	-0.03912
592.512	-0.0392
592.847	-0.03942
593.181	-0.03955
593.516	-0.03952
593.85	-0.03965
594.185	-0.03966
594.519	-0.03985
594.853	-0.03986
595.187	-0.03996
595.522	-0.0401
595.856	-0.04027
596.19	-0.04033
596.524	-0.04048
596.858	-0.04043
597.192	-0.04062
597.526	-0.04071
597.86	-0.04095
598.194	-0.04109
598.527	-0.0413
598.861	-0.04141
599.195	-0.04149
599.528	-0.04148
599.862	-0.04157
600.196	-0.04177
600.529	-0.04193
600.863	-0.04205
601.196	-0.04216
601.529	-0.04235
601.863	-0.04244
602.196	-0.04249
602.529	-0.04252
602.862	-0.04264
603.196	-0.04278
603.529	-0.04283
603.862	-0.04311
604.195	-0.04319
604.528	-0.04328
604.861	-0.04324
605.193	-0.04329
605.526	-0.04337
605.859	-0.04341
606.192	-0.04341
606.524	-0.04357
606.857	-0.04356
607.19	-0.04352
607.522	-0.04361
607.855	-0.04361
608.187	-0.04378
608.52	-0.04391
608.852	-0.04397
609.184	-0.04403
609.517	-0.04408
609.849	-0.04403
610.181	-0.04408
610.513	-0.04422
610.845	-0.04406
611.177	-0.04409
611.509	-0.0442
611.841	-0.04427
612.173	-0.04439
612.505	-0.04439
612.837	-0.04433
613.169	-0.04448
613.5	-0.04435
613.832	-0.04436
614.164	-0.04427
614.495	-0.04427
614.827	-0.04429
615.158	-0.04431
615.49	-0.04412
615.821	-0.04415
616.152	-0.04424
616.484	-0.04419
616.815	-0.04427
617.146	-0.04425
617.477	-0.0441
617.808	-0.04428
618.14	-0.04441
618.471	-0.04443
618.802	-0.04442
619.133	-0.04443
619.463	-0.04452
619.794	-0.04483
620.125	-0.04478
620.456	-0.04502
620.787	-0.04503
621.117	-0.04524
621.448	-0.04538
621.778	-0.04542
622.109	-0.04544
622.439	-0.04541
622.77	-0.04543
623.1	-0.04541
623.43	-0.04544
623.761	-0.04539
624.091	-0.04558
624.421	-0.04572
624.751	-0.04576
625.081	-0.04565
625.412	-0.04563
625.742	-0.04571
626.072	-0.04579
626.401	-0.04568
626.731	-0.04564
627.061	-0.04566
627.391	-0.04568
627.721	-0.04569
628.05	-0.0457
628.38	-0.04565
628.71	-0.04579
629.039	-0.04588
629.369	-0.04606
629.698	-0.04598
630.028	-0.046
630.357	-0.04611
630.686	-0.04614
631.015	-0.04609
631.345	-0.04604
631.674	-0.04601
632.003	-0.04598
632.332	-0.04597
632.661	-0.04597
632.99	-0.04591
633.319	-0.04601
633.648	-0.04594
633.977	-0.046
634.306	-0.04584
634.634	-0.04595
634.963	-0.04583
635.292	-0.04581
635.62	-0.04575
635.949	-0.04561
636.277	-0.04565
636.606	-0.04566
636.934	-0.04559
637.263	-0.04558
637.591	-0.04571
637.919	-0.04571
638.248	-0.04568
638.576	-0.04565
638.904	-0.04577
639.232	-0.04577
639.56	-0.04581
639.888	-0.04584
640.216	-0.04575
640.544	-0.04575
640.872	-0.0457
641.2	-0.0458
641.528	-0.04578
641.855	-0.04582
642.183	-0.04592
642.511	-0.04604
642.838	-0.046
643.166	-0.04585
643.493	-0.04594
643.821	-0.046
644.148	-0.04597
644.475	-0.04593
644.803	-0.04595
645.13	-0.0461
645.457	-0.04605
645.784	-0.04607
646.112	-0.04604
646.439	-0.04605
646.766	-0.04599
647.093	-0.04599
647.42	-0.046
647.746	-0.04614
648.073	-0.04621
648.4	-0.04625
648.727	-0.0464
649.053	-0.04638
649.38	-0.0463
649.707	-0.04648
650.033	-0.04666
650.36	-0.04672
650.686	-0.04684
651.013	-0.04693
651.339	-0.04693
651.665	-0.04689
651.992	-0.04685
652.318	-0.04689
652.644	-0.04688
652.97	-0.04697
653.296	-0.04684
653.622	-0.04691
653.948	-0.04694
654.274	-0.0468
654.6	-0.04673
654.926	-0.04667
655.252	-0.04665
655.578	-0.04661
655.903	-0.04662
656.229	-0.04654
656.555	-0.04653
656.88	-0.04639
657.206	-0.04633
657.531	-0.04627
657.857	-0.04624
658.182	-0.04631
658.507	-0.04636
658.833	-0.04635
659.158	-0.04645
659.483	-0.04645
659.808	-0.0465
660.133	-0.04652
660.458	-0.04654
660.783	-0.04653
661.108	-0.04664
661.433	-0.04661
661.758	-0.04653
662.083	-0.04657
662.408	-0.04652
662.732	-0.04649
663.057	-0.04648
663.382	-0.04644
663.706	-0.04656
664.031	-0.04661
664.355	-0.04654
664.68	-0.04646
665.004	-0.04635
665.328	-0.04641
665.653	-0.04645
665.977	-0.04632
666.301	-0.04633
666.625	-0.04637
666.949	-0.04632
667.273	-0.04634
667.597	-0.04643
667.921	-0.04637
668.245	-0.04634
668.569	-0.04639
668.893	-0.04639
669.217	-0.04636
669.54	-0.04618
669.864	-0.04621
670.188	-0.04608
670.511	-0.0459
670.835	-0.04589
671.158	-0.04589
671.482	-0.04592
671.805	-0.04609
672.128	-0.04591
672.452	-0.04588
672.775	-0.04596
673.098	-0.04594
673.421	-0.04592
673.744	-0.04608
674.068	-0.04604
674.391	-0.04592
674.714	-0.04587
675.036	-0.04582
675.359	-0.04583
675.682	-0.04575
676.005	-0.04579
676.328	-0.04585
676.65	-0.04577
676.973	-0.04586
677.295	-0.04596
677.618	-0.04592
677.94	-0.04602
678.263	-0.04619
678.585	-0.04612
678.908	-0.04623
679.23	-0.04625
679.552	-0.04626
679.874	-0.04626
680.196	-0.04624
680.519	-0.04627
680.841	-0.04624
681.163	-0.04634
681.485	-0.04656
681.807	-0.04669
682.128	-0.04662
682.45	-0.04671
682.772	-0.04676
683.094	-0.04684
683.415	-0.04694
683.737	-0.04689
684.059	-0.04677
684.38	-0.04683
684.702	-0.04676
685.023	-0.04674
685.344	-0.04666
685.666	-0.04661
685.987	-0.04659
686.308	-0.04649
686.629	-0.0465
686.95	-0.04638
687.272	-0.0463
687.593	-0.04624
687.914	-0.04629
688.235	-0.04625
688.555	-0.04613
688.876	-0.04617
689.197	-0.046
689.518	-0.04567
689.839	-0.04567
690.159	-0.04562
690.48	-0.04562
690.8	-0.04565
691.121	-0.04571
691.441	-0.0458
691.762	-0.04568
692.082	-0.04562
692.402	-0.04556
692.723	-0.04552
693.043	-0.04556
693.363	-0.0454
693.683	-0.04552
694.003	-0.04535
694.323	-0.04561
694.643	-0.04547
694.963	-0.04544
695.283	-0.04549
695.603	-0.04541
695.923	-0.04551
696.243	-0.04567
696.562	-0.04567
696.882	-0.04571
697.202	-0.04575
697.521	-0.04592
697.841	-0.04569
698.16	-0.04551
698.479	-0.04544
698.799	-0.04536
699.118	-0.04545
699.437	-0.04545
699.757	-0.04538
700.076	-0.04551
700.395	-0.04556
700.714	-0.04573
701.033	-0.04558
701.352	-0.04572
701.671	-0.04561
701.99	-0.04545
702.308	-0.04547
702.627	-0.0454
702.946	-0.04535
703.265	-0.04522
703.583	-0.04516
703.902	-0.04524
704.22	-0.04515
704.539	-0.04516
704.857	-0.0453
705.176	-0.04537
705.494	-0.04549
705.812	-0.04545
706.131	-0.04557
706.449	-0.04553
706.767	-0.04549
707.085	-0.04528
707.403	-0.04522
707.721	-0.04509
708.039	-0.04496
708.357	-0.04493
708.675	-0.04498
708.993	-0.04503
709.31	-0.04519
709.628	-0.04532
709.946	-0.04536
710.263	-0.04543
710.581	-0.04524
710.898	-0.04525
711.216	-0.04535
711.533	-0.0452
711.851	-0.04518
712.168	-0.04516
712.485	-0.04505
712.802	-0.04491
713.12	-0.04507
713.437	-0.04508
713.754	-0.04505
714.071	-0.04496
714.388	-0.04497
714.705	-0.04498
715.022	-0.04493
715.338	-0.04496
715.655	-0.04493
715.972	-0.0449
716.289	-0.04488
716.605	-0.04483
716.922	-0.04477
717.238	-0.04474
717.555	-0.04461
717.871	-0.04459
718.188	-0.04467
718.504	-0.0446
718.82	-0.04466
719.136	-0.04475
719.453	-0.04466
719.769	-0.0445
720.085	-0.04457
720.401	-0.0446
720.717	-0.04469
721.033	-0.0447
721.349	-0.04453
721.665	-0.04454
721.98	-0.04448
722.296	-0.04429
722.612	-0.04403
722.927	-0.044
723.243	-0.04398
723.559	-0.04401
723.874	-0.04405
724.19	-0.04405
724.505	-0.04389
724.82	-0.0438
725.136	-0.04367
725.451	-0.04357
725.766	-0.04344
726.081	-0.04351
726.396	-0.04362
726.711	-0.04351
727.026	-0.04336
727.341	-0.04336
727.656	-0.04335
727.971	-0.04345
728.286	-0.0435
728.601	-0.04352
728.916	-0.04356
729.23	-0.0436
729.545	-0.04341
729.859	-0.04346
730.174	-0.04344
730.488	-0.04341
730.803	-0.04337
731.117	-0.04339
731.431	-0.04342
731.746	-0.04354
732.06	-0.04354
732.374	-0.04363
732.688	-0.04375
733.002	-0.04383
733.316	-0.0438
733.63	-0.04387
733.944	-0.04388
734.258	-0.04386
734.572	-0.04386
734.886	-0.0438
735.199	-0.04377
735.513	-0.04378
735.827	-0.04378
736.14	-0.04393
736.454	-0.04388
736.767	-0.04387
737.081	-0.0438
737.394	-0.04379
737.708	-0.04386
738.021	-0.04386
738.334	-0.04383
738.647	-0.04381
738.96	-0.04368
739.273	-0.04339
739.587	-0.04325
739.9	-0.04322
740.212	-0.04321
740.525	-0.04309
740.838	-0.043
741.151	-0.04274
741.464	-0.04276
741.776	-0.04287
742.089	-0.04302
742.402	-0.04302
742.714	-0.04289
743.027	-0.0429
743.339	-0.04279
743.651	-0.04284
743.964	-0.04282
744.276	-0.04296
744.588	-0.04275
744.901	-0.04269
745.213	-0.04245
745.525	-0.04242
745.837	-0.04257
746.149	-0.04231
746.461	-0.04229
746.773	-0.04215
747.085	-0.04203
747.396	-0.04221
747.708	-0.04237
748.02	-0.04212
748.331	-0.042
748.643	-0.0418
748.955	-0.04173
749.266	-0.04159
749.577	-0.04152
749.889	-0.04151
750.2	-0.04151
750.512	-0.04147
750.823	-0.0411
751.134	-0.04122
751.445	-0.04111
751.756	-0.04124
752.067	-0.04118
752.378	-0.04105
752.689	-0.04123
753	-0.04085
753.311	-0.04088
753.622	-0.04092
753.932	-0.04059
754.243	-0.04044
754.554	-0.04066
754.864	-0.04045
755.175	-0.04053
755.485	-0.04055
755.796	-0.04065
756.106	-0.0406
756.417	-0.04051
756.727	-0.04052
757.037	-0.04058
757.347	-0.04065
757.658	-0.04051
757.968	-0.04065
758.278	-0.04073
758.588	-0.0407
758.898	-0.04071
759.208	-0.04079
759.517	-0.04097
759.827	-0.04113
760.137	-0.04105
760.447	-0.04124
760.756	-0.04132
761.066	-0.04128
761.375	-0.04159
761.685	-0.0416
761.994	-0.04148
762.304	-0.04145
762.613	-0.0415
762.922	-0.04149
763.232	-0.04131
763.541	-0.04138
763.85	-0.04159
764.159	-0.04158
764.468	-0.04155
764.777	-0.04157
765.086	-0.04145
765.395	-0.04131
765.704	-0.04109
766.013	-0.04107
766.321	-0.04066
766.63	-0.04075
766.939	-0.04049
767.247	-0.04052
767.556	-0.04049
767.864	-0.04011
768.173	-0.04011
768.481	-0.03992
768.789	-0.03995
769.098	-0.03983
769.406	-0.03986
769.714	-0.03984
770.022	-0.03983
770.33	-0.03967
770.638	-0.03968
770.946	-0.03964
771.254	-0.03935
771.562	-0.03955
771.87	-0.03975
772.178	-0.03979
772.486	-0.03963
772.793	-0.03979
773.101	-0.03955
773.408	-0.03961
773.716	-0.03964
774.023	-0.03952
774.331	-0.03974
774.638	-0.03961
774.946	-0.0398
775.253	-0.03959
775.56	-0.03955
775.867	-0.0393
776.174	-0.03948
776.481	-0.0391
776.788	-0.03895
777.095	-0.03864
777.402	-0.03846
777.709	-0.03862
778.016	-0.03858
778.323	-0.03833
778.63	-0.03841
778.936	-0.03837
779.243	-0.03858
779.549	-0.03865
779.856	-0.03865
780.162	-0.03813
780.469	-0.03805
780.775	-0.0377
781.082	-0.0373
781.388	-0.03727
781.694	-0.03704
782	-0.03684
782.306	-0.03712
782.612	-0.03693
782.918	-0.03703
783.224	-0.03698
783.53	-0.03718
783.836	-0.03702
784.142	-0.03715
784.448	-0.03693
784.753	-0.03695
785.059	-0.03672
785.365	-0.03692
785.67	-0.03674
785.976	-0.03664
786.281	-0.0365
786.586	-0.03705
786.892	-0.03723
787.197	-0.03734
787.502	-0.03766
787.808	-0.03771
788.113	-0.03802
788.418	-0.03812
788.723	-0.03806
789.028	-0.03801
789.333	-0.03806
789.638	-0.03823
789.942	-0.03796
790.247	-0.03798
790.552	-0.03756
790.857	-0.03764
791.161	-0.03767
791.466	-0.03759
791.77	-0.03754
792.075	-0.03759
792.379	-0.03768
792.684	-0.03777
792.988	-0.03751
793.292	-0.03717
793.597	-0.03729
793.901	-0.03724
794.205	-0.0372
794.509	-0.03702
794.813	-0.03731
795.117	-0.0374
795.421	-0.03737
795.725	-0.03741
796.029	-0.03731
796.332	-0.03755
796.636	-0.03769
796.94	-0.0379
797.243	-0.03798
797.547	-0.03781
797.85	-0.0376
798.154	-0.03757
798.457	-0.03737
798.761	-0.03732
799.064	-0.03729
799.367	-0.03723
799.67	-0.03756
799.973	-0.03753
800.277	-0.03752
800.58	-0.03754
800.883	-0.03804
801.186	-0.03751
801.488	-0.0373
801.791	-0.03723
802.094	-0.03703
802.397	-0.0367
802.699	-0.03678
803.002	-0.0366
803.305	-0.03676
803.607	-0.03674
803.91	-0.03687
804.212	-0.03708
804.515	-0.03707
804.817	-0.03694
805.119	-0.03672
805.421	-0.03654
805.724	-0.03625
806.026	-0.03595
806.328	-0.0356
806.63	-0.0355
806.932	-0.03559
807.234	-0.03524
807.535	-0.03533
807.837	-0.03511
808.139	-0.035
808.441	-0.03508
808.742	-0.03522
809.044	-0.03522
809.346	-0.03515
809.647	-0.03483
809.948	-0.03425
810.25	-0.03409
810.551	-0.03424
810.853	-0.03432
811.154	-0.03411
811.455	-0.03434
811.756	-0.03461
812.057	-0.03546
812.358	-0.03597
812.659	-0.03628
812.96	-0.03657
813.261	-0.03641
813.562	-0.03651
813.863	-0.03653
814.163	-0.03651
814.464	-0.03652
814.765	-0.03644
815.065	-0.036
815.366	-0.03572
815.666	-0.0359
815.967	-0.03577
816.267	-0.0362
816.567	-0.03645
816.868	-0.03618
817.168	-0.03591
817.468	-0.03652
817.768	-0.03625
818.068	-0.03612
818.368	-0.03587
818.668	-0.03563
818.968	-0.03587
819.268	-0.03561
819.568	-0.03543
819.867	-0.03506
820.167	-0.03513
820.467	-0.03491
820.766	-0.03495
821.066	-0.03482
821.365	-0.03526
821.665	-0.03548
821.964	-0.03505
822.263	-0.03517
822.563	-0.03542
822.862	-0.03463
823.161	-0.03505
823.46	-0.03592
823.759	-0.03551
824.058	-0.03561
824.357	-0.03552
824.656	-0.0347
824.955	-0.03409
825.254	-0.03384
825.552	-0.03358
825.851	-0.03383
826.15	-0.03404
826.448	-0.03413
826.747	-0.03421
827.045	-0.03417
827.344	-0.03432
827.642	-0.03417
827.941	-0.03404
828.239	-0.03482
828.537	-0.03507
828.835	-0.03499
829.133	-0.03581
829.432	-0.03511
829.73	-0.03375
830.028	-0.03388
830.325	-0.03403
830.623	-0.03429
830.921	-0.03481
831.219	-0.03559
831.517	-0.03541
831.814	-0.03642
832.112	-0.03653
832.409	-0.03653
832.707	-0.03655
833.004	-0.03692
833.302	-0.03697
833.599	-0.03665
833.896	-0.03638
834.194	-0.0369
834.491	-0.03617
834.788	-0.0356
835.085	-0.03531
835.382	-0.03436
835.679	-0.03468
835.976	-0.03496
836.273	-0.03477
836.57	-0.03426
836.866	-0.0336
837.163	-0.0339
837.46	-0.03309
837.756	-0.03292
838.053	-0.03178
838.349	-0.03137
838.646	-0.03067
838.942	-0.03034
839.239	-0.02979
839.535	-0.02983
839.831	-0.02949
840.127	-0.03036
840.423	-0.02932
840.72	-0.03022
841.016	-0.03096
841.312	-0.03022
841.607	-0.02994
841.903	-0.03004
842.199	-0.03076
842.495	-0.03089
842.791	-0.0313
843.086	-0.03256
843.382	-0.03252
843.677	-0.03332
843.973	-0.03382
844.268	-0.03444
844.564	-0.03424
844.859	-0.03515
845.154	-0.03413
845.45	-0.03321
845.745	-0.03471
846.04	-0.03533
846.335	-0.03521
846.63	-0.03511
846.925	-0.03395
847.22	-0.03214
847.515	-0.03256
847.81	-0.03398
848.104	-0.03437
848.399	-0.03345
848.694	-0.03493
848.988	-0.03545
849.283	-0.03343
849.578	-0.03497
849.872	-0.03621
850.166	-0.03589
850.461	-0.03397
850.755	-0.03434
851.049	-0.03617
851.343	-0.03857
851.638	-0.04008
851.932	-0.03679
852.226	-0.03642
852.52	-0.03435
852.814	-0.03536
853.107	-0.03704
853.401	-0.03717
853.695	-0.03609
853.989	-0.04005
854.282	-0.03863
854.576	-0.04058
854.869	-0.03775
855.163	-0.03651
855.456	-0.03797
855.75	-0.03359
856.043	-0.02954
856.336	-0.02931
856.63	-0.02952
856.923	-0.02696
857.216	-0.02416
857.509	-0.02535
857.802	-0.02541
858.095	-0.0271
858.388	-0.02891
858.681	-0.03393
858.974	-0.0366
859.266	-0.03768
859.559	-0.03883
859.852	-0.03614
860.144	-0.02986
860.437	-0.03182
860.729	-0.02805
861.022	-0.03043
861.314	-0.02916
861.606	-0.03194
861.899	-0.03582
862.191	-0.03574
862.483	-0.03525
862.775	-0.0366
863.067	-0.0431
863.359	-0.04498
863.651	-0.04503
863.943	-0.04528
864.235	-0.04186
864.527	-0.03864
864.819	-0.03784
865.11	-0.03109
865.402	-0.03197
865.693	-0.03321
865.985	-0.0416
866.276	-0.0427
866.568	-0.03797
866.859	-0.03789
867.151	-0.03863
867.442	-0.03712
867.733	-0.03507
868.024	-0.03172
868.315	-0.03185
868.606	-0.03607
868.897	-0.03399
869.188	-0.02981
869.479	-0.02739
869.77	-0.02575
870.061	-0.02627
870.351	-0.0283
870.642	-0.03149
870.933	-0.02888
871.223	-0.034
871.514	-0.02987
871.804	-0.02784
872.095	-0.02212
872.385	-0.02163
872.675	-0.02736
