Data from AuNP_Jan1_slurryTest_532nm_50mJ_30s_Absorbance_11-40-56-577.txt Node
Date: Mon Jan 30 11:40:56 EST 2023
User: UV-vis
Spectrometer: FLMS04918
Trigger mode: 0
Integration Time (sec): 1.080000E-3
Scans to average: 10
Electric dark correction enabled: true
Nonlinearity correction enabled: false
Boxcar width: 10
XAxis mode: Wavelengths
Number of Pixels in Spectrum: 2048
>>>>>Begin Spectral Data<<<<<
179.23	0.10774
179.611	0.26583
179.992	0.55798
180.373	0.57518
180.754	0.81621
181.134	0.20503
181.515	0.30163
181.896	0.21682
182.276	0.07185
182.657	0.17968
183.038	-0.04396
183.418	-0.10397
183.799	-0.16797
184.179	0.31352
184.56	0.25659
184.94	0.23337
185.32	0.2043
185.701	0.20224
186.081	0.23642
186.461	0.25652
186.842	0.26407
187.222	0.24641
187.602	0.26289
187.982	0.2626
188.362	0.26066
188.742	0.25962
189.122	0.24917
189.502	0.25297
189.882	0.25011
190.262	0.24725
190.642	0.25144
191.022	0.25073
191.402	0.24712
191.781	0.24604
192.161	0.25182
192.541	0.25935
192.92	0.26346
193.3	0.26755
193.68	0.27206
194.059	0.2737
194.439	0.27157
194.818	0.27737
195.198	0.28159
195.577	0.28045
195.957	0.28593
196.336	0.2882
196.715	0.28964
197.094	0.29209
197.474	0.29263
197.853	0.29759
198.232	0.29987
198.611	0.29803
198.99	0.29904
199.369	0.29946
199.748	0.30115
200.127	0.29964
200.506	0.29866
200.885	0.29852
201.264	0.29722
201.643	0.29663
202.022	0.29514
202.401	0.29402
202.779	0.28722
203.158	0.28671
203.537	0.28161
203.915	0.27829
204.294	0.27972
204.673	0.2823
205.051	0.28764
205.43	0.29043
205.808	0.28885
206.187	0.2919
206.565	0.29557
206.943	0.29515
207.322	0.29883
207.7	0.29474
208.078	0.29963
208.456	0.29811
208.835	0.2973
209.213	0.30014
209.591	0.30325
209.969	0.3099
210.347	0.31358
210.725	0.31151
211.103	0.31617
211.481	0.32382
211.859	0.32632
212.237	0.32649
212.614	0.32484
212.992	0.32168
213.37	0.32141
213.748	0.32543
214.125	0.32838
214.503	0.32799
214.881	0.32548
215.258	0.32623
215.636	0.33404
216.013	0.32943
216.391	0.33284
216.768	0.33488
217.145	0.33721
217.523	0.33492
217.9	0.33206
218.277	0.3239
218.655	0.32494
219.032	0.32306
219.409	0.3223
219.786	0.32533
220.163	0.32926
220.54	0.33593
220.917	0.33527
221.294	0.33713
221.671	0.3348
222.048	0.32917
222.425	0.32983
222.802	0.33036
223.179	0.33316
223.556	0.33161
223.932	0.33432
224.309	0.33173
224.686	0.33289
225.062	0.333
225.439	0.33318
225.815	0.33148
226.192	0.33759
226.568	0.34267
226.945	0.3411
227.321	0.34314
227.698	0.34222
228.074	0.33847
228.45	0.3289
228.827	0.32903
229.203	0.32819
229.579	0.32427
229.955	0.32602
230.331	0.32301
230.707	0.3258
231.083	0.32512
231.46	0.32875
231.835	0.32761
232.211	0.32782
232.587	0.33255
232.963	0.3317
233.339	0.3367
233.715	0.33794
234.091	0.33788
234.466	0.34041
234.842	0.34301
235.218	0.34728
235.593	0.35127
235.969	0.35904
236.344	0.36389
236.72	0.36696
237.095	0.36366
237.471	0.36737
237.846	0.36694
238.222	0.37305
238.597	0.3785
238.972	0.37805
239.348	0.37998
239.723	0.38479
240.098	0.38635
240.473	0.38193
240.848	0.38301
241.223	0.38002
241.598	0.38136
241.973	0.38489
242.348	0.38051
242.723	0.37996
243.098	0.37458
243.473	0.37684
243.848	0.37264
244.223	0.38058
244.597	0.38434
244.972	0.38304
245.347	0.3849
245.721	0.38486
246.096	0.38396
246.47	0.38497
246.845	0.3845
247.219	0.38204
247.594	0.38151
247.968	0.37994
248.343	0.37846
248.717	0.37969
249.091	0.38116
249.466	0.38254
249.84	0.38533
250.214	0.38914
250.588	0.39167
250.962	0.39544
251.336	0.39793
251.71	0.402
252.084	0.40177
252.458	0.40213
252.832	0.41397
253.206	0.41926
253.58	0.4283
253.954	0.4331
254.328	0.43565
254.702	0.4425
255.075	0.44859
255.449	0.45325
255.823	0.45769
256.196	0.46314
256.57	0.46762
256.943	0.4704
257.317	0.47443
257.69	0.47594
258.064	0.4809
258.437	0.4825
258.81	0.48338
259.184	0.48457
259.557	0.48546
259.93	0.48062
260.303	0.47788
260.677	0.47671
261.05	0.47841
261.423	0.47281
261.796	0.47081
262.169	0.46921
262.542	0.46482
262.915	0.4662
263.288	0.46692
263.661	0.46814
264.033	0.46976
264.406	0.47534
264.779	0.48243
265.152	0.48189
265.524	0.48253
265.897	0.48509
266.27	0.49004
266.642	0.49202
267.015	0.49107
267.387	0.49556
267.76	0.50258
268.132	0.50983
268.504	0.51057
268.877	0.51389
269.249	0.52053
269.621	0.52816
269.994	0.52934
270.366	0.53896
270.738	0.53812
271.11	0.5454
271.482	0.55239
271.854	0.55607
272.226	0.55293
272.598	0.55428
272.97	0.56512
273.342	0.57936
273.714	0.58058
274.086	0.58427
274.458	0.59539
274.829	0.60639
275.201	0.60901
275.573	0.61592
275.944	0.614
276.316	0.62542
276.688	0.62799
277.059	0.63453
277.431	0.64696
277.802	0.65992
278.173	0.68069
278.545	0.71964
278.916	0.76193
279.287	0.81801
279.659	0.89072
280.03	0.98295
280.401	1.07099
280.772	1.15938
281.143	1.2466
281.515	1.33063
281.886	1.40899
282.257	1.47531
282.628	1.52995
282.998	1.58119
283.369	1.62248
283.74	1.6605
284.111	1.68951
284.482	1.7146
284.853	1.73394
285.223	1.74663
285.594	1.75771
285.965	1.76498
286.335	1.76615
286.706	1.76324
287.076	1.76376
287.447	1.76109
287.817	1.75373
288.188	1.74872
288.558	1.74187
288.928	1.73237
289.299	1.72167
289.669	1.7084
290.039	1.69459
290.409	1.68234
290.779	1.66903
291.149	1.65495
291.52	1.64118
291.89	1.62608
292.26	1.61219
292.629	1.59814
292.999	1.58485
293.369	1.57169
293.739	1.55845
294.109	1.545
294.479	1.53326
294.848	1.52133
295.218	1.50969
295.588	1.49819
295.957	1.48644
296.327	1.47515
296.696	1.46478
297.066	1.45474
297.435	1.44588
297.805	1.43665
298.174	1.42701
298.544	1.41709
298.913	1.40853
299.282	1.40044
299.651	1.39172
300.021	1.38316
300.39	1.37529
300.759	1.36731
301.128	1.35994
301.497	1.35192
301.866	1.34501
302.235	1.338
302.604	1.33133
302.973	1.32445
303.342	1.31766
303.71	1.31081
304.079	1.30406
304.448	1.29659
304.817	1.2889
305.185	1.28124
305.554	1.27339
305.923	1.26565
306.291	1.25841
306.66	1.25066
307.028	1.24258
307.397	1.2352
307.765	1.2275
308.133	1.21974
308.502	1.2127
308.87	1.20521
309.238	1.19869
309.606	1.19214
309.975	1.18578
310.343	1.17911
310.711	1.17298
311.079	1.16684
311.447	1.1606
311.815	1.15451
312.183	1.14845
312.551	1.14257
312.919	1.13675
313.286	1.13086
313.654	1.12492
314.022	1.11917
314.39	1.11379
314.757	1.10839
315.125	1.10314
315.492	1.09805
315.86	1.09274
316.228	1.08712
316.595	1.08187
316.962	1.07631
317.33	1.07077
317.697	1.06535
318.065	1.05971
318.432	1.0541
318.799	1.04845
319.166	1.04308
319.534	1.03754
319.901	1.03214
320.268	1.02708
320.635	1.02198
321.002	1.01695
321.369	1.01216
321.736	1.00754
322.103	1.00263
322.47	0.99821
322.836	0.99338
323.203	0.98859
323.57	0.98374
323.937	0.97873
324.303	0.97391
324.67	0.96907
325.037	0.96444
325.403	0.9596
325.77	0.9549
326.136	0.95039
326.503	0.94608
326.869	0.94149
327.235	0.93711
327.602	0.93266
327.968	0.92802
328.334	0.9236
328.7	0.91944
329.067	0.91514
329.433	0.91082
329.799	0.90657
330.165	0.9023
330.531	0.89824
330.897	0.89409
331.263	0.89012
331.629	0.88626
331.995	0.88226
332.36	0.87836
332.726	0.87427
333.092	0.87035
333.458	0.86638
333.823	0.86243
334.189	0.85851
334.554	0.85484
334.92	0.85087
335.286	0.84698
335.651	0.84336
336.016	0.83977
336.382	0.83606
336.747	0.83242
337.113	0.82864
337.478	0.82497
337.843	0.82128
338.208	0.81782
338.573	0.81413
338.939	0.81074
339.304	0.80741
339.669	0.80382
340.034	0.80026
340.399	0.79688
340.764	0.7936
341.129	0.79046
341.493	0.78702
341.858	0.7837
342.223	0.78024
342.588	0.77698
342.952	0.77379
343.317	0.77049
343.682	0.76688
344.046	0.76372
344.411	0.76052
344.775	0.75715
345.14	0.7538
345.504	0.7506
345.869	0.747
346.233	0.74387
346.597	0.74041
346.962	0.73688
347.326	0.73361
347.69	0.73033
348.054	0.72695
348.418	0.72351
348.782	0.71997
349.146	0.7167
349.51	0.71316
349.874	0.70957
350.238	0.70595
350.602	0.70257
350.966	0.69895
351.33	0.69576
351.693	0.69215
352.057	0.68852
352.421	0.68524
352.784	0.68187
353.148	0.67827
353.512	0.67493
353.875	0.67129
354.239	0.66778
354.602	0.66441
354.966	0.66093
355.329	0.65746
355.692	0.65392
356.056	0.65037
356.419	0.647
356.782	0.64354
357.145	0.64024
357.508	0.63696
357.871	0.63366
358.234	0.63034
358.597	0.62721
358.96	0.62365
359.323	0.62065
359.686	0.61768
360.049	0.61446
360.412	0.6113
360.775	0.60824
361.137	0.6053
361.5	0.60225
361.863	0.59937
362.225	0.59631
362.588	0.59351
362.951	0.59073
363.313	0.58801
363.675	0.58534
364.038	0.5827
364.4	0.58007
364.763	0.57721
365.125	0.5747
365.487	0.57229
365.849	0.5699
366.212	0.56759
366.574	0.56535
366.936	0.56289
367.298	0.56059
367.66	0.55832
368.022	0.55618
368.384	0.55398
368.746	0.55171
369.108	0.54972
369.469	0.54758
369.831	0.54566
370.193	0.54353
370.555	0.54143
370.916	0.53934
371.278	0.53734
371.64	0.53535
372.001	0.53336
372.363	0.53169
372.724	0.52985
373.086	0.52812
373.447	0.52632
373.808	0.52463
374.17	0.52295
374.531	0.52121
374.892	0.51954
375.253	0.51809
375.615	0.51657
375.976	0.51506
376.337	0.51337
376.698	0.5119
377.059	0.51037
377.42	0.50869
377.781	0.50728
378.141	0.50582
378.502	0.50432
378.863	0.50285
379.224	0.50133
379.585	0.49992
379.945	0.4984
380.306	0.49681
380.666	0.49537
381.027	0.49394
381.388	0.49263
381.748	0.49135
382.108	0.49007
382.469	0.48859
382.829	0.48709
383.19	0.48543
383.55	0.4839
383.91	0.48247
384.27	0.48102
384.63	0.47974
384.991	0.47861
385.351	0.47717
385.711	0.47593
386.071	0.47466
386.431	0.47338
386.791	0.47194
387.15	0.47064
387.51	0.46941
387.87	0.4682
388.23	0.46703
388.589	0.46579
388.949	0.46465
389.309	0.46364
389.668	0.46238
390.028	0.46143
390.387	0.46029
390.747	0.45936
391.106	0.45841
391.466	0.45752
391.825	0.45629
392.184	0.45506
392.544	0.45389
392.903	0.45279
393.262	0.45164
393.621	0.45058
393.98	0.44962
394.339	0.44887
394.698	0.44805
395.057	0.4472
395.416	0.44637
395.775	0.4454
396.134	0.44438
396.493	0.44316
396.852	0.44202
397.211	0.44097
397.569	0.43981
397.928	0.43868
398.287	0.43772
398.645	0.43668
399.004	0.43548
399.362	0.43453
399.721	0.4336
400.079	0.43261
400.438	0.43183
400.796	0.43108
401.154	0.43025
401.512	0.42932
401.871	0.42841
402.229	0.42745
402.587	0.42627
402.945	0.42543
403.303	0.42445
403.661	0.42367
404.019	0.4228
404.377	0.42189
404.735	0.42114
405.093	0.42038
405.451	0.41961
405.808	0.41871
406.166	0.41768
406.524	0.41717
406.882	0.4165
407.239	0.41569
407.597	0.41491
407.954	0.41402
408.312	0.41312
408.669	0.41224
409.027	0.4114
409.384	0.4107
409.741	0.40993
410.099	0.40938
410.456	0.40851
410.813	0.40755
411.17	0.40673
411.527	0.40592
411.884	0.40529
412.242	0.40451
412.599	0.40374
412.956	0.40318
413.312	0.40253
413.669	0.402
414.026	0.40119
414.383	0.40043
414.74	0.39965
415.096	0.39889
415.453	0.39822
415.81	0.39753
416.166	0.39681
416.523	0.39586
416.879	0.39496
417.236	0.39403
417.592	0.39323
417.949	0.39265
418.305	0.39232
418.661	0.3918
419.018	0.39127
419.374	0.39057
419.73	0.39012
420.086	0.38957
420.442	0.38894
420.798	0.38816
421.154	0.38762
421.51	0.38712
421.866	0.38665
422.222	0.3863
422.578	0.38575
422.934	0.38518
423.29	0.38456
423.646	0.38409
424.001	0.3836
424.357	0.38291
424.713	0.38233
425.068	0.38163
425.424	0.38066
425.779	0.37949
426.135	0.37864
426.49	0.37803
426.845	0.37727
427.201	0.37628
427.556	0.37566
427.911	0.37515
428.266	0.375
428.622	0.37442
428.977	0.3737
429.332	0.37327
429.687	0.37277
430.042	0.37245
430.397	0.37218
430.752	0.37178
431.107	0.37109
431.461	0.37065
431.816	0.37008
432.171	0.36976
432.526	0.36927
432.88	0.36902
433.235	0.36883
433.59	0.36822
433.944	0.36807
434.299	0.36778
434.653	0.36751
435.008	0.36692
435.362	0.36633
435.716	0.36559
436.071	0.36529
436.425	0.365
436.779	0.3646
437.133	0.36415
437.487	0.36385
437.841	0.36344
438.195	0.36303
438.549	0.36301
438.903	0.36284
439.257	0.36255
439.611	0.36181
439.965	0.36131
440.319	0.36059
440.673	0.36049
441.026	0.36037
441.38	0.3593
441.734	0.35876
442.087	0.35839
442.441	0.35806
442.794	0.35731
443.148	0.35705
443.501	0.3568
443.855	0.35659
444.208	0.35656
444.561	0.35634
444.915	0.35582
445.268	0.35546
445.621	0.35557
445.974	0.35534
446.327	0.35491
446.68	0.35497
447.033	0.35503
447.386	0.35502
447.739	0.35529
448.092	0.35507
448.445	0.35481
448.798	0.35477
449.15	0.35458
449.503	0.35429
449.856	0.35434
450.209	0.35433
450.561	0.35409
450.914	0.35354
451.266	0.35363
451.619	0.35304
451.971	0.35279
452.323	0.3527
452.676	0.35237
453.028	0.35193
453.38	0.35186
453.733	0.35181
454.085	0.35163
454.437	0.35138
454.789	0.35092
455.141	0.35067
455.493	0.35024
455.845	0.35037
456.197	0.35037
456.549	0.35018
456.901	0.3502
457.253	0.34988
457.604	0.34973
457.956	0.34942
458.308	0.34928
458.659	0.34858
459.011	0.34875
459.362	0.34874
459.714	0.34884
460.065	0.34879
460.417	0.34871
460.768	0.34812
461.12	0.34823
461.471	0.34813
461.822	0.34827
462.173	0.34883
462.525	0.34884
462.876	0.34906
463.227	0.34895
463.578	0.34891
463.929	0.34898
464.28	0.34889
464.631	0.34854
464.982	0.34844
465.332	0.34854
465.683	0.34884
466.034	0.34902
466.385	0.34888
466.735	0.34909
467.086	0.34896
467.437	0.34908
467.787	0.34914
468.138	0.34944
468.488	0.34968
468.839	0.34982
469.189	0.34955
469.539	0.34927
469.89	0.34939
470.24	0.34962
470.59	0.34964
470.94	0.34979
471.29	0.35005
471.64	0.35021
471.99	0.35078
472.34	0.35121
472.69	0.35159
473.04	0.35199
473.39	0.35232
473.74	0.35239
474.09	0.35255
474.439	0.35306
474.789	0.35373
475.139	0.35439
475.488	0.3547
475.838	0.35503
476.188	0.35525
476.537	0.35576
476.886	0.35597
477.236	0.3564
477.585	0.35693
477.935	0.3575
478.284	0.35812
478.633	0.35849
478.982	0.35927
479.331	0.3595
479.68	0.36017
480.03	0.3608
480.379	0.36126
480.728	0.362
481.076	0.36293
481.425	0.36379
481.774	0.36451
482.123	0.36516
482.472	0.36566
482.821	0.36668
483.169	0.36734
483.518	0.36824
483.866	0.36916
484.215	0.36999
484.563	0.37064
484.912	0.37139
485.26	0.37228
485.609	0.37311
485.957	0.37399
486.305	0.37459
486.654	0.37567
487.002	0.37622
487.35	0.3768
487.698	0.37773
488.046	0.37853
488.394	0.37947
488.742	0.38011
489.09	0.38082
489.438	0.38142
489.786	0.38211
490.134	0.38311
490.482	0.38413
490.829	0.38503
491.177	0.38596
491.525	0.3869
491.872	0.38782
492.22	0.38839
492.567	0.3892
492.915	0.38998
493.262	0.39086
493.61	0.39194
493.957	0.39288
494.304	0.39411
494.652	0.39561
494.999	0.39671
495.346	0.39778
495.693	0.39854
496.04	0.39971
496.387	0.40096
496.734	0.40206
497.081	0.40319
497.428	0.40396
497.775	0.40495
498.122	0.4063
498.469	0.40728
498.816	0.40869
499.162	0.41022
499.509	0.41165
499.856	0.4127
500.202	0.4141
500.549	0.41528
500.895	0.41653
501.242	0.41768
501.588	0.41893
501.935	0.42002
502.281	0.42099
502.627	0.42228
502.973	0.42359
503.32	0.42489
503.666	0.42599
504.012	0.42755
504.358	0.42893
504.704	0.43035
505.05	0.43168
505.396	0.43283
505.742	0.43404
506.088	0.43518
506.433	0.43595
506.779	0.43704
507.125	0.43838
507.471	0.43946
507.816	0.44061
508.162	0.44156
508.507	0.44298
508.853	0.4441
509.198	0.44521
509.544	0.4466
509.889	0.44763
510.234	0.44915
510.58	0.45047
510.925	0.45159
511.27	0.45273
511.615	0.45387
511.96	0.45491
512.306	0.45598
512.651	0.45669
512.996	0.45778
513.341	0.45864
513.685	0.45975
514.03	0.46075
514.375	0.46177
514.72	0.46264
515.065	0.46375
515.409	0.46491
515.754	0.46564
516.099	0.46635
516.443	0.46714
516.788	0.46764
517.132	0.46819
517.476	0.46857
517.821	0.46891
518.165	0.4694
518.51	0.4698
518.854	0.47015
519.198	0.47063
519.542	0.47101
519.886	0.47143
520.23	0.47196
520.574	0.47246
520.918	0.47281
521.262	0.47312
521.606	0.47321
521.95	0.47346
522.294	0.47337
522.638	0.47329
522.981	0.4734
523.325	0.47357
523.669	0.47344
524.012	0.47347
524.356	0.47349
524.699	0.47349
525.043	0.47321
525.386	0.4731
525.73	0.47283
526.073	0.4727
526.416	0.47262
526.76	0.47211
527.103	0.47178
527.446	0.47112
527.789	0.47043
528.132	0.46992
528.475	0.46947
528.818	0.46888
529.161	0.46814
529.504	0.46746
529.847	0.46694
530.19	0.46626
530.532	0.46555
530.875	0.46474
531.218	0.46389
531.56	0.46308
531.903	0.46192
532.246	0.46099
532.588	0.45997
532.93	0.45887
533.273	0.45771
533.615	0.45625
533.958	0.45513
534.3	0.45407
534.642	0.45296
534.984	0.45175
535.326	0.4503
535.669	0.4488
536.011	0.44745
536.353	0.44609
536.695	0.44467
537.037	0.44305
537.378	0.44155
537.72	0.43999
538.062	0.43831
538.404	0.43657
538.746	0.43489
539.087	0.43338
539.429	0.43189
539.77	0.42998
540.112	0.42827
540.454	0.42656
540.795	0.42487
541.136	0.42299
541.478	0.42121
541.819	0.41943
542.16	0.41774
542.502	0.41612
542.843	0.4143
543.184	0.4124
543.525	0.41052
543.866	0.40866
544.207	0.40682
544.548	0.4047
544.889	0.40291
545.23	0.40113
545.571	0.39919
545.911	0.39705
546.252	0.395
546.593	0.39283
546.934	0.39105
547.274	0.38917
547.615	0.38716
547.955	0.38517
548.296	0.38332
548.636	0.3812
548.977	0.37922
549.317	0.37719
549.657	0.37526
549.997	0.37324
550.338	0.37133
550.678	0.36931
551.018	0.36734
551.358	0.36514
551.698	0.36325
552.038	0.36123
552.378	0.35914
552.718	0.35717
553.058	0.35535
553.398	0.35338
553.737	0.35164
554.077	0.34956
554.417	0.3475
554.756	0.34559
555.096	0.3435
555.435	0.34158
555.775	0.33964
556.114	0.33766
556.454	0.33569
556.793	0.33357
557.133	0.33181
557.472	0.3298
557.811	0.32771
558.15	0.32577
558.489	0.32399
558.829	0.32198
559.168	0.31998
559.507	0.3181
559.846	0.31635
560.184	0.31446
560.523	0.31245
560.862	0.31047
561.201	0.30873
561.54	0.30683
561.878	0.30496
562.217	0.30325
562.556	0.30141
562.894	0.29945
563.233	0.29766
563.571	0.29571
563.91	0.2938
564.248	0.29188
564.586	0.29011
564.925	0.28836
565.263	0.28667
565.601	0.28491
565.939	0.28314
566.277	0.2814
566.616	0.27977
566.954	0.27813
567.292	0.27635
567.63	0.27471
567.967	0.27311
568.305	0.27149
568.643	0.26983
568.981	0.26814
569.319	0.26658
569.656	0.26498
569.994	0.26356
570.331	0.26198
570.669	0.26059
571.006	0.25905
571.344	0.25753
571.681	0.25592
572.019	0.25455
572.356	0.25283
572.693	0.25122
573.03	0.24992
573.368	0.24827
573.705	0.24661
574.042	0.2451
574.379	0.24376
574.716	0.24234
575.053	0.2409
575.39	0.23947
575.727	0.23812
576.063	0.2366
576.4	0.23493
576.737	0.23346
577.074	0.23212
577.41	0.23055
577.747	0.22914
578.083	0.22774
578.42	0.22628
578.756	0.22507
579.093	0.22375
579.429	0.22239
579.766	0.22118
580.102	0.21978
580.438	0.21854
580.774	0.21738
581.11	0.21585
581.446	0.21453
581.782	0.21331
582.119	0.21196
582.454	0.21068
582.79	0.20934
583.126	0.20839
583.462	0.20729
583.798	0.2061
584.134	0.20479
584.469	0.20373
584.805	0.20264
585.141	0.20161
585.476	0.20052
585.812	0.19923
586.147	0.1982
586.482	0.19722
586.818	0.19597
587.153	0.19485
587.488	0.19393
587.824	0.19283
588.159	0.19197
588.494	0.19095
588.829	0.18998
589.164	0.18903
589.499	0.188
589.834	0.18704
590.169	0.18606
590.504	0.18508
590.839	0.18404
591.174	0.18305
591.508	0.18205
591.843	0.18087
592.178	0.17992
592.512	0.17898
592.847	0.17825
593.181	0.17717
593.516	0.17628
593.85	0.17542
594.185	0.17443
594.519	0.1733
594.853	0.17238
595.187	0.17146
595.522	0.17054
595.856	0.16965
596.19	0.1689
596.524	0.16796
596.858	0.16704
597.192	0.166
597.526	0.16519
597.86	0.16433
598.194	0.16351
598.527	0.16248
598.861	0.16167
599.195	0.16071
599.528	0.16008
599.862	0.1593
600.196	0.15825
600.529	0.15738
600.863	0.15665
601.196	0.15601
601.529	0.15523
601.863	0.15454
602.196	0.15368
602.529	0.15287
602.862	0.15194
603.196	0.15086
603.529	0.15013
603.862	0.14939
604.195	0.14866
604.528	0.14795
604.861	0.1472
605.193	0.14639
605.526	0.14579
605.859	0.14511
606.192	0.14417
606.524	0.14321
606.857	0.14231
607.19	0.14172
607.522	0.1411
607.855	0.14023
608.187	0.13943
608.52	0.13884
608.852	0.13801
609.184	0.13732
609.517	0.13661
609.849	0.13595
610.181	0.13537
610.513	0.13464
610.845	0.13402
611.177	0.13333
611.509	0.13258
611.841	0.13188
612.173	0.13128
612.505	0.13066
612.837	0.12986
613.169	0.12959
613.5	0.1291
613.832	0.12846
614.164	0.1278
614.495	0.12718
614.827	0.12651
615.158	0.12579
615.49	0.12517
615.821	0.12479
616.152	0.12431
616.484	0.1237
616.815	0.12311
617.146	0.12253
617.477	0.12194
617.808	0.12135
618.14	0.12082
618.471	0.1202
618.802	0.11951
619.133	0.11877
619.463	0.11822
619.794	0.11797
620.125	0.11732
620.456	0.11667
620.787	0.11614
621.117	0.11568
621.448	0.11505
621.778	0.11473
622.109	0.11428
622.439	0.11359
622.77	0.11286
623.1	0.11232
623.43	0.11184
623.761	0.1113
624.091	0.11061
624.421	0.11008
624.751	0.10955
625.081	0.1091
625.412	0.1086
625.742	0.10821
626.072	0.10783
626.401	0.10736
626.731	0.1066
627.061	0.10597
627.391	0.10554
627.721	0.10496
628.05	0.10443
628.38	0.10409
628.71	0.10356
629.039	0.10315
629.369	0.10277
629.698	0.10226
630.028	0.10178
630.357	0.10117
630.686	0.10086
631.015	0.10064
631.345	0.10023
631.674	0.09983
632.003	0.09934
632.332	0.09899
632.661	0.09869
632.99	0.09836
633.319	0.09796
633.648	0.09763
633.977	0.09727
634.306	0.09685
634.634	0.09655
634.963	0.09631
635.292	0.09569
635.62	0.0953
635.949	0.09476
636.277	0.09449
636.606	0.09423
636.934	0.09369
637.263	0.09352
637.591	0.0931
637.919	0.09267
638.248	0.09239
638.576	0.09205
638.904	0.0914
639.232	0.09092
639.56	0.09055
639.888	0.09023
640.216	0.08977
640.544	0.08932
640.872	0.08899
641.2	0.0887
641.528	0.08821
641.855	0.08764
642.183	0.08727
642.511	0.08686
642.838	0.0865
643.166	0.08598
643.493	0.0855
643.821	0.08525
644.148	0.08484
644.475	0.08442
644.803	0.08409
645.13	0.08368
645.457	0.08329
645.784	0.08315
646.112	0.08279
646.439	0.08242
646.766	0.08195
647.093	0.08164
647.42	0.08136
647.746	0.08085
648.073	0.08035
648.4	0.08012
648.727	0.07973
649.053	0.07951
649.38	0.07909
649.707	0.07901
650.033	0.07865
650.36	0.07833
650.686	0.07797
651.013	0.07766
651.339	0.07725
651.665	0.07669
651.992	0.07626
652.318	0.07595
652.644	0.07573
652.97	0.07551
653.296	0.0751
653.622	0.07462
653.948	0.07432
654.274	0.0739
654.6	0.0737
654.926	0.07334
655.252	0.07298
655.578	0.07297
655.903	0.07263
656.229	0.07242
656.555	0.07198
656.88	0.07164
657.206	0.07148
657.531	0.07123
657.857	0.07087
658.182	0.07057
658.507	0.07025
658.833	0.06984
659.158	0.06955
659.483	0.06925
659.808	0.06894
660.133	0.06876
660.458	0.06868
660.783	0.0684
661.108	0.06836
661.433	0.06807
661.758	0.06779
662.083	0.06753
662.408	0.06708
662.732	0.06681
663.057	0.06655
663.382	0.06627
663.706	0.06602
664.031	0.06561
664.355	0.0652
664.68	0.0649
665.004	0.06477
665.328	0.06467
665.653	0.06452
665.977	0.06415
666.301	0.06383
666.625	0.06363
666.949	0.06328
667.273	0.06282
667.597	0.06249
667.921	0.06214
668.245	0.06194
668.569	0.06192
668.893	0.06164
669.217	0.0614
669.54	0.06126
669.864	0.06089
670.188	0.06062
670.511	0.06049
670.835	0.06015
671.158	0.06006
671.482	0.05998
671.805	0.05965
672.128	0.05944
672.452	0.05932
672.775	0.05907
673.098	0.05877
673.421	0.05835
673.744	0.058
674.068	0.0578
674.391	0.05766
674.714	0.05741
675.036	0.05712
675.359	0.05681
675.682	0.0566
676.005	0.0563
676.328	0.05609
676.65	0.05599
676.973	0.05581
677.295	0.05564
677.618	0.05552
677.94	0.05533
678.263	0.05497
678.585	0.05473
678.908	0.05447
679.23	0.0542
679.552	0.05403
679.874	0.05397
680.196	0.05391
680.519	0.05395
680.841	0.05387
681.163	0.05384
681.485	0.05368
681.807	0.05358
682.128	0.05335
682.45	0.05321
682.772	0.05299
683.094	0.05263
683.415	0.05239
683.737	0.05237
684.059	0.05205
684.38	0.05197
684.702	0.05185
685.023	0.05155
685.344	0.0513
685.666	0.05124
685.987	0.0512
686.308	0.05091
686.629	0.05076
686.95	0.05052
687.272	0.05
687.593	0.04978
687.914	0.0493
688.235	0.0492
688.555	0.04919
688.876	0.049
689.197	0.04881
689.518	0.04861
689.839	0.04852
690.159	0.04846
690.48	0.04809
690.8	0.04812
691.121	0.04787
691.441	0.04763
691.762	0.04751
692.082	0.04749
692.402	0.04726
692.723	0.04689
693.043	0.04698
693.363	0.04662
693.683	0.04649
694.003	0.04661
694.323	0.04641
694.643	0.0465
694.963	0.04619
695.283	0.04596
695.603	0.04577
695.923	0.04568
696.243	0.04559
696.562	0.0454
696.882	0.04521
697.202	0.04505
697.521	0.04476
697.841	0.04457
698.16	0.04439
698.479	0.04434
698.799	0.04409
699.118	0.04397
699.437	0.04378
699.757	0.04353
700.076	0.04358
700.395	0.04346
700.714	0.04313
701.033	0.04298
701.352	0.04263
701.671	0.04243
701.99	0.04208
702.308	0.04195
702.627	0.0417
702.946	0.04169
703.265	0.04159
703.583	0.04151
703.902	0.04155
704.22	0.04146
704.539	0.04145
704.857	0.04139
705.176	0.04126
705.494	0.04124
705.812	0.04106
706.131	0.04115
706.449	0.04128
706.767	0.04107
707.085	0.04083
707.403	0.04075
707.721	0.0406
708.039	0.04054
708.357	0.04054
708.675	0.0404
708.993	0.04017
709.31	0.04015
709.628	0.04
709.946	0.03982
710.263	0.03962
710.581	0.03928
710.898	0.03914
711.216	0.03896
711.533	0.03861
711.851	0.03841
712.168	0.03817
712.485	0.03803
712.802	0.03779
713.12	0.03732
713.437	0.03709
713.754	0.0371
714.071	0.03693
714.388	0.03693
714.705	0.03683
715.022	0.03668
715.338	0.03666
715.655	0.03665
715.972	0.0363
716.289	0.03612
716.605	0.0358
716.922	0.03583
717.238	0.03565
717.555	0.03547
717.871	0.03521
718.188	0.03507
718.504	0.0349
718.82	0.03491
719.136	0.03491
719.453	0.03487
719.769	0.03488
720.085	0.03459
720.401	0.03446
720.717	0.03466
721.033	0.03452
721.349	0.03424
721.665	0.03416
721.98	0.03407
722.296	0.034
722.612	0.03399
722.927	0.03386
723.243	0.03388
723.559	0.03356
723.874	0.03345
724.19	0.03342
724.505	0.03344
724.82	0.03331
725.136	0.03324
725.451	0.03311
725.766	0.03288
726.081	0.03268
726.396	0.03244
726.711	0.03262
727.026	0.03267
727.341	0.03248
727.656	0.03222
727.971	0.03223
728.286	0.03229
728.601	0.03221
728.916	0.03198
729.23	0.03193
729.545	0.03181
729.859	0.03188
730.174	0.03192
730.488	0.03196
730.803	0.03194
731.117	0.03164
731.431	0.0319
731.746	0.03202
732.06	0.03195
732.374	0.03194
732.688	0.03185
733.002	0.03183
733.316	0.03153
733.63	0.03117
733.944	0.03092
734.258	0.03118
734.572	0.03114
734.886	0.03089
735.199	0.03074
735.513	0.03066
735.827	0.03065
736.14	0.03082
736.454	0.03074
736.767	0.03054
737.081	0.03033
737.394	0.03028
737.708	0.03033
738.021	0.03016
738.334	0.03009
738.647	0.03017
738.96	0.02994
739.273	0.02984
739.587	0.0298
739.9	0.02975
740.212	0.0299
740.525	0.02985
740.838	0.0297
741.151	0.02969
741.464	0.02956
741.776	0.02951
742.089	0.02965
742.402	0.02936
742.714	0.02916
743.027	0.02876
743.339	0.02865
743.651	0.02872
743.964	0.02836
744.276	0.02841
744.588	0.0282
744.901	0.02798
745.213	0.02774
745.525	0.02778
745.837	0.0277
746.149	0.0275
746.461	0.02727
746.773	0.02709
747.085	0.02701
747.396	0.02674
747.708	0.02641
748.02	0.02637
748.331	0.02623
748.643	0.02597
748.955	0.02582
749.266	0.02574
749.577	0.02579
749.889	0.02561
750.2	0.02528
750.512	0.02533
750.823	0.02513
751.134	0.02512
751.445	0.02502
751.756	0.02496
752.067	0.02477
752.378	0.02475
752.689	0.02493
753	0.02516
753.311	0.02506
753.622	0.02487
753.932	0.02496
754.243	0.02498
754.554	0.02494
754.864	0.02503
755.175	0.02504
755.485	0.02514
755.796	0.02512
756.106	0.02514
756.417	0.02503
756.727	0.02532
757.037	0.02526
757.347	0.02531
757.658	0.02518
757.968	0.02512
758.278	0.02499
758.588	0.02522
758.898	0.02512
759.208	0.02465
759.517	0.02476
759.827	0.02458
760.137	0.02471
760.447	0.02445
760.756	0.02439
761.066	0.0243
761.375	0.02423
761.685	0.02403
761.994	0.02407
762.304	0.02414
762.613	0.02413
762.922	0.02436
763.232	0.02414
763.541	0.02425
763.85	0.02399
764.159	0.02349
764.468	0.0233
764.777	0.02316
765.086	0.02293
765.395	0.02265
765.704	0.02265
766.013	0.02241
766.321	0.02243
766.63	0.0222
766.939	0.02219
767.247	0.02202
767.556	0.02192
767.864	0.02171
768.173	0.02208
768.481	0.02211
768.789	0.02197
769.098	0.02196
769.406	0.02196
769.714	0.022
770.022	0.02162
770.33	0.02157
770.638	0.02195
770.946	0.0218
771.254	0.02167
771.562	0.02163
771.87	0.02206
772.178	0.02234
772.486	0.02209
772.793	0.02211
773.101	0.02187
773.408	0.02167
773.716	0.02204
774.023	0.0217
774.331	0.02183
774.638	0.02159
774.946	0.02116
775.253	0.02087
775.56	0.02072
775.867	0.02031
776.174	0.02006
776.481	0.02022
776.788	0.02039
777.095	0.02069
777.402	0.02137
777.709	0.02153
778.016	0.02156
778.323	0.02126
778.63	0.02099
778.936	0.02109
779.243	0.021
779.549	0.02132
779.856	0.02152
780.162	0.02147
780.469	0.02163
780.775	0.02151
781.082	0.02109
781.388	0.02131
781.694	0.02143
782	0.0214
782.306	0.02147
782.612	0.02168
782.918	0.02162
783.224	0.02183
783.53	0.02154
783.836	0.02095
784.142	0.02097
784.448	0.02058
784.753	0.02044
785.059	0.02064
785.365	0.02041
785.67	0.02054
785.976	0.02051
786.281	0.02013
786.586	0.0196
786.892	0.0196
787.197	0.01965
787.502	0.01967
787.808	0.01948
788.113	0.01931
788.418	0.01957
788.723	0.01952
789.028	0.01946
789.333	0.01956
789.638	0.01936
789.942	0.01897
790.247	0.01894
790.552	0.0188
790.857	0.01902
791.161	0.01903
791.466	0.01866
791.77	0.01859
792.075	0.01826
792.379	0.01837
792.684	0.01866
792.988	0.0193
793.292	0.01977
793.597	0.01954
793.901	0.01993
794.205	0.02013
794.509	0.02022
794.813	0.01973
795.117	0.01958
795.421	0.01943
795.725	0.01947
796.029	0.01919
796.332	0.01974
796.636	0.02004
796.94	0.01976
797.243	0.01974
797.547	0.01965
797.85	0.01979
798.154	0.02004
798.457	0.02008
798.761	0.02028
799.064	0.02014
799.367	0.01998
799.67	0.01952
799.973	0.0194
800.277	0.01904
800.58	0.01881
800.883	0.01865
801.186	0.01891
801.488	0.01872
801.791	0.01863
802.094	0.01822
802.397	0.01856
802.699	0.01861
803.002	0.01825
803.305	0.01844
803.607	0.01847
803.91	0.01882
804.212	0.01907
804.515	0.0189
804.817	0.01903
805.119	0.01843
805.421	0.01882
805.724	0.01818
806.026	0.01811
806.328	0.01815
806.63	0.01798
806.932	0.01811
807.234	0.01796
807.535	0.01792
807.837	0.01808
808.139	0.01817
808.441	0.0185
808.742	0.01862
809.044	0.01825
809.346	0.01846
809.647	0.01844
809.948	0.01841
810.25	0.01796
810.551	0.01742
810.853	0.01746
811.154	0.01724
811.455	0.01704
811.756	0.01705
812.057	0.01692
812.358	0.01678
812.659	0.01651
812.96	0.01662
813.261	0.0166
813.562	0.01689
813.863	0.01708
814.163	0.01705
814.464	0.01727
814.765	0.01687
815.065	0.01629
815.366	0.0166
815.666	0.01665
815.967	0.01636
816.267	0.01595
816.567	0.01573
816.868	0.01573
817.168	0.01519
817.468	0.01551
817.768	0.01544
818.068	0.01491
818.368	0.0153
818.668	0.01565
818.968	0.01596
819.268	0.01603
819.568	0.01517
819.867	0.01521
820.167	0.01477
820.467	0.01449
820.766	0.01454
821.066	0.01422
821.365	0.01415
821.665	0.01345
821.964	0.01306
822.263	0.01305
822.563	0.01333
822.862	0.01323
823.161	0.01333
823.46	0.01443
823.759	0.01385
824.058	0.0143
824.357	0.01415
824.656	0.01419
824.955	0.01407
825.254	0.01345
825.552	0.01351
825.851	0.01459
826.15	0.01468
826.448	0.01476
826.747	0.01519
827.045	0.01567
827.344	0.01588
827.642	0.01578
827.941	0.01671
828.239	0.01654
828.537	0.01575
828.835	0.01609
829.133	0.01644
829.432	0.01619
829.73	0.01629
830.028	0.01626
830.325	0.01674
830.623	0.01724
830.921	0.01716
831.219	0.01685
831.517	0.0173
831.814	0.01791
832.112	0.01699
832.409	0.01615
832.707	0.01568
833.004	0.01656
833.302	0.0156
833.599	0.01548
833.896	0.016
834.194	0.01588
834.491	0.01659
834.788	0.01874
835.085	0.01922
835.382	0.01967
835.679	0.02012
835.976	0.02059
836.273	0.0202
836.57	0.01891
836.866	0.02043
837.163	0.02036
837.46	0.02037
837.756	0.02088
838.053	0.02009
838.349	0.02102
838.646	0.02212
838.942	0.0232
839.239	0.02296
839.535	0.02362
839.831	0.02491
840.127	0.02409
840.423	0.02428
840.72	0.02487
841.016	0.02439
841.312	0.02317
841.607	0.02429
841.903	0.02639
842.199	0.02653
842.495	0.02783
842.791	0.02718
843.086	0.02667
843.382	0.02842
843.677	0.02865
843.973	0.02874
844.268	0.02881
844.564	0.02933
844.859	0.02653
845.154	0.02749
845.45	0.02541
845.745	0.0224
846.04	0.02304
846.335	0.02253
846.63	0.02232
846.925	0.02271
847.22	0.02139
847.515	0.02422
847.81	0.02467
848.104	0.02135
848.399	0.01823
848.694	0.01713
848.988	0.02029
849.283	0.0178
849.578	0.01747
849.872	0.01902
850.166	0.01889
850.461	0.02072
850.755	0.02303
851.049	0.0248
851.343	0.02549
851.638	0.02524
851.932	0.03075
852.226	0.02411
852.52	0.02832
852.814	0.02784
853.107	0.02953
853.401	0.0281
853.695	0.02234
853.989	0.01683
854.282	0.01814
854.576	0.01742
854.869	0.01452
855.163	0.01216
855.456	0.01433
855.75	0.01714
856.043	0.0186
856.336	0.0256
856.63	0.02558
856.923	0.02245
857.216	0.02922
857.509	0.02769
857.802	0.03155
858.095	0.025
858.388	0.02879
858.681	0.02569
858.974	0.02242
859.266	0.01869
859.559	0.02391
859.852	0.02182
860.144	0.02881
860.437	0.03322
860.729	0.03816
861.022	0.04792
861.314	0.0498
861.606	0.04837
861.899	0.04284
862.191	0.04103
862.483	0.03074
862.775	0.0302
863.067	0.02709
863.359	0.02191
863.651	0.02475
863.943	0.02628
864.235	0.02449
864.527	0.02275
864.819	0.02152
865.11	0.02422
865.402	0.02272
865.693	0.02097
865.985	0.0289
866.276	0.02034
866.568	0.01962
866.859	0.01779
867.151	0.01546
867.442	0.01684
867.733	0.0173
868.024	0.01113
868.315	0.01613
868.606	0.02089
868.897	0.02223
869.188	0.02734
869.479	0.03028
869.77	0.02733
870.061	0.02819
870.351	0.03377
870.642	0.03799
870.933	0.04099
871.223	0.04104
871.514	0.04049
871.804	0.04412
872.095	0.04181
872.385	0.05253
872.675	0.04961
