Data from AuNP_Jan1_slurryTest_532nm_50mJ_05s_Absorbance_11-43-56-620.txt Node
Date: Mon Jan 30 11:43:56 EST 2023
User: UV-vis
Spectrometer: FLMS04918
Trigger mode: 0
Integration Time (sec): 1.080000E-3
Scans to average: 10
Electric dark correction enabled: true
Nonlinearity correction enabled: false
Boxcar width: 10
XAxis mode: Wavelengths
Number of Pixels in Spectrum: 2048
>>>>>Begin Spectral Data<<<<<
179.23	-0.0098
179.611	-0.07651
179.992	-0.02274
180.373	0.01333
180.754	0.04873
181.134	-0.07103
181.515	-0.01813
181.896	0.01994
182.276	0.15107
182.657	0.40611
183.038	0.42703
183.418	0.04238
183.799	-0.16264
184.179	0.62105
184.56	0.37769
184.94	0.35001
185.32	0.30878
185.701	0.30666
186.081	0.30444
186.461	0.28709
186.842	0.2933
187.222	0.26654
187.602	0.27816
187.982	0.28173
188.362	0.2793
188.742	0.29534
189.122	0.28998
189.502	0.29471
189.882	0.2933
190.262	0.30162
190.642	0.30734
191.022	0.30939
191.402	0.30192
191.781	0.29814
192.161	0.30644
192.541	0.31165
192.92	0.31105
193.3	0.30947
193.68	0.30876
194.059	0.31583
194.439	0.32142
194.818	0.32733
195.198	0.33088
195.577	0.32805
195.957	0.32991
196.336	0.32951
196.715	0.32251
197.094	0.32543
197.474	0.32519
197.853	0.33251
198.232	0.3315
198.611	0.3277
198.99	0.32974
199.369	0.32998
199.748	0.3324
200.127	0.3296
200.506	0.33004
200.885	0.32799
201.264	0.33444
201.643	0.33323
202.022	0.32672
202.401	0.32078
202.779	0.31295
203.158	0.31902
203.537	0.31897
203.915	0.31492
204.294	0.31858
204.673	0.32065
205.051	0.32005
205.43	0.3223
205.808	0.32136
206.187	0.32002
206.565	0.32609
206.943	0.32158
207.322	0.32526
207.7	0.33254
208.078	0.33347
208.456	0.32884
208.835	0.3305
209.213	0.3309
209.591	0.33505
209.969	0.3397
210.347	0.34914
210.725	0.34748
211.103	0.34799
211.481	0.34705
211.859	0.34799
212.237	0.34744
212.614	0.34798
212.992	0.3487
213.37	0.34894
213.748	0.34847
214.125	0.35452
214.503	0.3577
214.881	0.36021
215.258	0.36348
215.636	0.35586
216.013	0.35362
216.391	0.35309
216.768	0.35705
217.145	0.35286
217.523	0.35104
217.9	0.3496
218.277	0.34602
218.655	0.35207
219.032	0.35264
219.409	0.35373
219.786	0.35203
220.163	0.35919
220.54	0.36578
220.917	0.36553
221.294	0.3707
221.671	0.37276
222.048	0.37387
222.425	0.36957
222.802	0.37619
223.179	0.37457
223.556	0.3808
223.932	0.37976
224.309	0.38114
224.686	0.37731
225.062	0.38248
225.439	0.3782
225.815	0.37772
226.192	0.3793
226.568	0.38018
226.945	0.37722
227.321	0.38303
227.698	0.39047
228.074	0.38025
228.45	0.37329
228.827	0.37468
229.203	0.37323
229.579	0.37021
229.955	0.36955
230.331	0.36638
230.707	0.36087
231.083	0.36066
231.46	0.36078
231.835	0.35882
232.211	0.35818
232.587	0.36574
232.963	0.36188
233.339	0.36592
233.715	0.36792
234.091	0.36662
234.466	0.36889
234.842	0.36909
235.218	0.37028
235.593	0.36979
235.969	0.37803
236.344	0.38419
236.72	0.3911
237.095	0.38549
237.471	0.38754
237.846	0.38885
238.222	0.39202
238.597	0.39542
238.972	0.39302
239.348	0.38372
239.723	0.39232
240.098	0.39398
240.473	0.39007
240.848	0.39421
241.223	0.39733
241.598	0.39767
241.973	0.40557
242.348	0.40596
242.723	0.40713
243.098	0.40866
243.473	0.40856
243.848	0.40614
244.223	0.40749
244.597	0.40667
244.972	0.41001
245.347	0.41245
245.721	0.40612
246.096	0.4056
246.47	0.40897
246.845	0.41393
247.219	0.42038
247.594	0.41834
247.968	0.42024
248.343	0.42043
248.717	0.42056
249.091	0.41677
249.466	0.4227
249.84	0.41818
250.214	0.42071
250.588	0.42594
250.962	0.4237
251.336	0.42346
251.71	0.42797
252.084	0.42936
252.458	0.4277
252.832	0.43
253.206	0.43667
253.58	0.44125
253.954	0.44856
254.328	0.44472
254.702	0.4505
255.075	0.45886
255.449	0.46378
255.823	0.46888
256.196	0.47327
256.57	0.47455
256.943	0.48658
257.317	0.48481
257.69	0.49212
258.064	0.49686
258.437	0.49671
258.81	0.4955
259.184	0.50074
259.557	0.49933
259.93	0.49911
260.303	0.50119
260.677	0.50438
261.05	0.50067
261.423	0.50687
261.796	0.51019
262.169	0.51577
262.542	0.51289
262.915	0.51133
263.288	0.51559
263.661	0.51743
264.033	0.5223
264.406	0.52813
264.779	0.53392
265.152	0.53742
265.524	0.53761
265.897	0.54317
266.27	0.54926
266.642	0.55741
267.015	0.56179
267.387	0.56936
267.76	0.57494
268.132	0.5826
268.504	0.58074
268.877	0.59282
269.249	0.59335
269.621	0.59415
269.994	0.5989
270.366	0.60669
270.738	0.60875
271.11	0.61189
271.482	0.61294
271.854	0.61872
272.226	0.62435
272.598	0.62362
272.97	0.63615
273.342	0.64571
273.714	0.64864
274.086	0.64828
274.458	0.65739
274.829	0.66061
275.201	0.66514
275.573	0.67164
275.944	0.67545
276.316	0.69137
276.688	0.69
277.059	0.69529
277.431	0.70827
277.802	0.72139
278.173	0.74035
278.545	0.77112
278.916	0.81395
279.287	0.87445
279.659	0.94739
280.03	1.04035
280.401	1.13879
280.772	1.23009
281.143	1.32608
281.515	1.41796
281.886	1.51027
282.257	1.58757
282.628	1.65637
282.998	1.71589
283.369	1.77127
283.74	1.81737
284.111	1.85735
284.482	1.89386
284.853	1.92647
285.223	1.94959
285.594	1.96878
285.965	1.98446
286.335	1.99749
286.706	2.00357
287.076	2.00915
287.447	2.01239
287.817	2.00749
288.188	2.00408
288.558	1.9993
288.928	1.99489
289.299	1.98399
289.669	1.97275
290.039	1.9598
290.409	1.94731
290.779	1.93598
291.149	1.92024
291.52	1.90665
291.89	1.89217
292.26	1.87632
292.629	1.86138
292.999	1.84718
293.369	1.83369
293.739	1.81934
294.109	1.80495
294.479	1.79135
294.848	1.77882
295.218	1.76625
295.588	1.75359
295.957	1.74055
296.327	1.72849
296.696	1.71549
297.066	1.70352
297.435	1.69253
297.805	1.68226
298.174	1.67088
298.544	1.65933
298.913	1.64893
299.282	1.63916
299.651	1.62888
300.021	1.61831
300.39	1.60879
300.759	1.59879
301.128	1.58941
301.497	1.58109
301.866	1.57234
302.235	1.564
302.604	1.55571
302.973	1.54678
303.342	1.53798
303.71	1.5297
304.079	1.52097
304.448	1.51235
304.817	1.50406
305.185	1.49465
305.554	1.48487
305.923	1.47563
306.291	1.46623
306.66	1.45702
307.028	1.44737
307.397	1.43847
307.765	1.43021
308.133	1.42099
308.502	1.41245
308.87	1.40354
309.238	1.39483
309.606	1.3867
309.975	1.37859
310.343	1.37068
310.711	1.36332
311.079	1.35618
311.447	1.34833
311.815	1.3415
312.183	1.33442
312.551	1.32701
312.919	1.31969
313.286	1.31221
313.654	1.30543
314.022	1.29881
314.39	1.29197
314.757	1.28554
315.125	1.27855
315.492	1.27185
315.86	1.26527
316.228	1.25874
316.595	1.25251
316.962	1.24603
317.33	1.23949
317.697	1.23321
318.065	1.22677
318.432	1.22
318.799	1.21352
319.166	1.20714
319.534	1.20064
319.901	1.19399
320.268	1.18805
320.635	1.18229
321.002	1.17662
321.369	1.17067
321.736	1.16499
322.103	1.15968
322.47	1.15399
322.836	1.14852
323.203	1.14283
323.57	1.13733
323.937	1.13164
324.303	1.12599
324.67	1.12041
325.037	1.11475
325.403	1.10889
325.77	1.10329
326.136	1.09778
326.503	1.09234
326.869	1.08703
327.235	1.08142
327.602	1.07632
327.968	1.07097
328.334	1.0659
328.7	1.06101
329.067	1.05612
329.433	1.05127
329.799	1.04637
330.165	1.04147
330.531	1.03678
330.897	1.0323
331.263	1.02753
331.629	1.02279
331.995	1.01794
332.36	1.01324
332.726	1.00875
333.092	1.00447
333.458	0.99976
333.823	0.99564
334.189	0.99102
334.554	0.98664
334.92	0.98222
335.286	0.97768
335.651	0.97313
336.016	0.96872
336.382	0.96436
336.747	0.96026
337.113	0.9559
337.478	0.95147
337.843	0.94709
338.208	0.94301
338.573	0.93866
338.939	0.93462
339.304	0.93064
339.669	0.92665
340.034	0.92256
340.399	0.91846
340.764	0.91434
341.129	0.9102
341.493	0.90592
341.858	0.90209
342.223	0.89792
342.588	0.89382
342.952	0.88974
343.317	0.88587
343.682	0.88188
344.046	0.87784
344.411	0.87373
344.775	0.86966
345.14	0.86565
345.504	0.86169
345.869	0.85751
346.233	0.8533
346.597	0.84914
346.962	0.84506
347.326	0.84111
347.69	0.83704
348.054	0.83291
348.418	0.82869
348.782	0.82486
349.146	0.82087
349.51	0.8165
349.874	0.81216
350.238	0.80835
350.602	0.80424
350.966	0.80019
351.33	0.79623
351.693	0.79219
352.057	0.78814
352.421	0.78425
352.784	0.7802
353.148	0.77619
353.512	0.77199
353.875	0.76813
354.239	0.76412
354.602	0.7601
354.966	0.75611
355.329	0.75216
355.692	0.74809
356.056	0.74412
356.419	0.74006
356.782	0.73602
357.145	0.73216
357.508	0.72841
357.871	0.72435
358.234	0.72076
358.597	0.71702
358.96	0.71328
359.323	0.70962
359.686	0.70584
360.049	0.70211
360.412	0.69857
360.775	0.695
361.137	0.69168
361.5	0.68794
361.863	0.68453
362.225	0.68094
362.588	0.67743
362.951	0.67412
363.313	0.67084
363.675	0.66769
364.038	0.66454
364.4	0.66127
364.763	0.65821
365.125	0.65539
365.487	0.65253
365.849	0.64959
366.212	0.6466
366.574	0.64382
366.936	0.64095
367.298	0.63834
367.66	0.63571
368.022	0.63306
368.384	0.63062
368.746	0.62774
369.108	0.62527
369.469	0.62268
369.831	0.62031
370.193	0.61797
370.555	0.61534
370.916	0.6128
371.278	0.61052
371.64	0.60817
372.001	0.60601
372.363	0.60377
372.724	0.60131
373.086	0.59922
373.447	0.59703
373.808	0.59514
374.17	0.59286
374.531	0.59085
374.892	0.58894
375.253	0.58686
375.615	0.58496
375.976	0.58289
376.337	0.58116
376.698	0.57923
377.059	0.57744
377.42	0.57555
377.781	0.57364
378.141	0.57197
378.502	0.57046
378.863	0.56855
379.224	0.56689
379.585	0.56524
379.945	0.5637
380.306	0.56237
380.666	0.56063
381.027	0.5592
381.388	0.55767
381.748	0.55637
382.108	0.55485
382.469	0.55297
382.829	0.55153
383.19	0.54985
383.55	0.54827
383.91	0.5466
384.27	0.54519
384.63	0.5436
384.991	0.54227
385.351	0.54079
385.711	0.53924
386.071	0.53766
386.431	0.5361
386.791	0.53454
387.15	0.53305
387.51	0.53161
387.87	0.52995
388.23	0.52862
388.589	0.52709
388.949	0.52577
389.309	0.52453
389.668	0.5234
390.028	0.52242
390.387	0.52098
390.747	0.51983
391.106	0.51867
391.466	0.51755
391.825	0.51634
392.184	0.51519
392.544	0.51374
392.903	0.51251
393.262	0.51143
393.621	0.51026
393.98	0.50919
394.339	0.50805
394.698	0.50698
395.057	0.50586
395.416	0.50486
395.775	0.50381
396.134	0.50267
396.493	0.50157
396.852	0.50028
397.211	0.49901
397.569	0.49777
397.928	0.49663
398.287	0.49533
398.645	0.49416
399.004	0.49303
399.362	0.49174
399.721	0.49048
400.079	0.48962
400.438	0.48871
400.796	0.4875
401.154	0.48647
401.512	0.4854
401.871	0.48454
402.229	0.48361
402.587	0.48243
402.945	0.48146
403.303	0.48022
403.661	0.47921
404.019	0.47798
404.377	0.47691
404.735	0.47588
405.093	0.4748
405.451	0.47392
405.808	0.47318
406.166	0.47225
406.524	0.47153
406.882	0.47088
407.239	0.46989
407.597	0.46884
407.954	0.46769
408.312	0.46692
408.669	0.46592
409.027	0.46507
409.384	0.46408
409.741	0.46309
410.099	0.46212
410.456	0.46127
410.813	0.4604
411.17	0.45956
411.527	0.45883
411.884	0.45799
412.242	0.45706
412.599	0.45637
412.956	0.45554
413.312	0.45465
413.669	0.45379
414.026	0.45283
414.383	0.45189
414.74	0.45123
415.096	0.45037
415.453	0.44978
415.81	0.44894
416.166	0.44825
416.523	0.44722
416.879	0.44633
417.236	0.4453
417.592	0.44475
417.949	0.44389
418.305	0.44352
418.661	0.44299
419.018	0.44229
419.374	0.44172
419.73	0.44117
420.086	0.44051
420.442	0.43987
420.798	0.43922
421.154	0.43875
421.51	0.43814
421.866	0.43769
422.222	0.4372
422.578	0.43671
422.934	0.43605
423.29	0.43535
423.646	0.43488
424.001	0.43433
424.357	0.43366
424.713	0.4331
425.068	0.43209
425.424	0.43129
425.779	0.43014
426.135	0.429
426.49	0.42798
426.845	0.42686
427.201	0.42589
427.556	0.42534
427.911	0.42474
428.266	0.42424
428.622	0.42338
428.977	0.42273
429.332	0.42205
429.687	0.42147
430.042	0.42094
430.397	0.42008
430.752	0.41976
431.107	0.41895
431.461	0.41884
431.816	0.41858
432.171	0.41827
432.526	0.41781
432.88	0.4175
433.235	0.41707
433.59	0.41657
433.944	0.41636
434.299	0.41605
434.653	0.41537
435.008	0.41447
435.362	0.41398
435.716	0.41342
436.071	0.41288
436.425	0.41258
436.779	0.41225
437.133	0.41198
437.487	0.41185
437.841	0.41208
438.195	0.41185
438.549	0.41156
438.903	0.41094
439.257	0.4104
439.611	0.40987
439.965	0.40982
440.319	0.40934
440.673	0.40913
441.026	0.40879
441.38	0.40802
441.734	0.40747
442.087	0.40751
442.441	0.40697
442.794	0.40674
443.148	0.40626
443.501	0.40594
443.855	0.40559
444.208	0.4056
444.561	0.40541
444.915	0.40496
445.268	0.40486
445.621	0.40456
445.974	0.40452
446.327	0.40427
446.68	0.40441
447.033	0.4043
447.386	0.40425
447.739	0.40415
448.092	0.40382
448.445	0.40388
448.798	0.40404
449.15	0.40438
449.503	0.40406
449.856	0.40401
450.209	0.40364
450.561	0.40382
450.914	0.40388
451.266	0.40379
451.619	0.40348
451.971	0.40312
452.323	0.40296
452.676	0.40276
453.028	0.40253
453.38	0.40216
453.733	0.40233
454.085	0.40193
454.437	0.40191
454.789	0.40144
455.141	0.40091
455.493	0.4007
455.845	0.40077
456.197	0.4009
456.549	0.40038
456.901	0.40049
457.253	0.40062
457.604	0.40072
457.956	0.40017
458.308	0.39965
458.659	0.39943
459.011	0.39956
459.362	0.39962
459.714	0.39957
460.065	0.39931
460.417	0.39925
460.768	0.39928
461.12	0.39914
461.471	0.39964
461.822	0.39989
462.173	0.4003
462.525	0.40075
462.876	0.40086
463.227	0.40081
463.578	0.40069
463.929	0.40075
464.28	0.40063
464.631	0.40042
464.982	0.40033
465.332	0.40048
465.683	0.401
466.034	0.40124
466.385	0.40118
466.735	0.40131
467.086	0.40147
467.437	0.40161
467.787	0.40188
468.138	0.40202
468.488	0.40246
468.839	0.40236
469.189	0.4022
469.539	0.40216
469.89	0.40236
470.24	0.40296
470.59	0.40319
470.94	0.40319
471.29	0.40387
471.64	0.40436
471.99	0.40518
472.34	0.40574
472.69	0.40647
473.04	0.40694
473.39	0.40748
473.74	0.4079
474.09	0.40859
474.439	0.40923
474.789	0.40997
475.139	0.41036
475.488	0.411
475.838	0.41157
476.188	0.4122
476.537	0.41284
476.886	0.41332
477.236	0.41389
477.585	0.4146
477.935	0.41559
478.284	0.41666
478.633	0.4174
478.982	0.41836
479.331	0.41896
479.68	0.41964
480.03	0.42038
480.379	0.42148
480.728	0.42218
481.076	0.42306
481.425	0.42374
481.774	0.42481
482.123	0.42596
482.472	0.42724
482.821	0.42815
483.169	0.42927
483.518	0.43025
483.866	0.43123
484.215	0.43241
484.563	0.43357
484.912	0.43454
485.26	0.43545
485.609	0.43635
485.957	0.43726
486.305	0.4383
486.654	0.43928
487.002	0.44047
487.35	0.44146
487.698	0.44235
488.046	0.44359
488.394	0.44483
488.742	0.44597
489.09	0.44701
489.438	0.44797
489.786	0.44892
490.134	0.45028
490.482	0.45156
490.829	0.45292
491.177	0.45438
491.525	0.4555
491.872	0.45677
492.22	0.45779
492.567	0.45906
492.915	0.46055
493.262	0.46207
493.61	0.46339
493.957	0.46491
494.304	0.46635
494.652	0.468
494.999	0.46953
495.346	0.47097
495.693	0.47233
496.04	0.47418
496.387	0.47564
496.734	0.47718
497.081	0.47888
497.428	0.48062
497.775	0.48175
498.122	0.4835
498.469	0.48515
498.816	0.48689
499.162	0.4886
499.509	0.49052
499.856	0.49224
500.202	0.49409
500.549	0.49563
500.895	0.49736
501.242	0.49926
501.588	0.50095
501.935	0.50277
502.281	0.50483
502.627	0.50671
502.973	0.50838
503.32	0.51014
503.666	0.51179
504.012	0.51347
504.358	0.51524
504.704	0.51681
505.05	0.5189
505.396	0.52047
505.742	0.522
506.088	0.52388
506.433	0.52555
506.779	0.52695
507.125	0.52852
507.471	0.53017
507.816	0.53155
508.162	0.53303
508.507	0.53461
508.853	0.5365
509.198	0.53809
509.544	0.5394
509.889	0.54082
510.234	0.54255
510.58	0.54411
510.925	0.54572
511.27	0.54734
511.615	0.54891
511.96	0.55067
512.306	0.55199
512.651	0.55325
512.996	0.5547
513.341	0.55623
513.685	0.55781
514.03	0.55937
514.375	0.56068
514.72	0.56189
515.065	0.56341
515.409	0.56487
515.754	0.56593
516.099	0.56672
516.443	0.56782
516.788	0.56893
517.132	0.56994
517.476	0.5711
517.821	0.57184
518.165	0.5728
518.51	0.57366
518.854	0.57449
519.198	0.57516
519.542	0.57587
519.886	0.57661
520.23	0.57728
520.574	0.57794
520.918	0.57825
521.262	0.57868
521.606	0.57928
521.95	0.57986
522.294	0.58028
522.638	0.58049
522.981	0.58082
523.325	0.58133
523.669	0.58164
524.012	0.58186
524.356	0.58199
524.699	0.58162
525.043	0.58149
525.386	0.58146
525.73	0.58134
526.073	0.58117
526.416	0.58109
526.76	0.58094
527.103	0.5806
527.446	0.58018
527.789	0.57946
528.132	0.57899
528.475	0.57835
528.818	0.5775
529.161	0.57665
529.504	0.57613
529.847	0.5754
530.19	0.57458
530.532	0.57341
530.875	0.57236
531.218	0.5713
531.56	0.57049
531.903	0.56951
532.246	0.56818
532.588	0.567
532.93	0.56571
533.273	0.56409
533.615	0.56249
533.958	0.56128
534.3	0.55997
534.642	0.55862
534.984	0.55726
535.326	0.55597
535.669	0.55437
536.011	0.55294
536.353	0.55109
536.695	0.54919
537.037	0.54727
537.378	0.54541
537.72	0.54375
538.062	0.54166
538.404	0.53968
538.746	0.53767
539.087	0.53581
539.429	0.5341
539.77	0.53178
540.112	0.52943
540.454	0.52743
540.795	0.5252
541.136	0.52256
541.478	0.52009
541.819	0.51773
542.16	0.5152
542.502	0.51266
542.843	0.51038
543.184	0.50781
543.525	0.50546
543.866	0.50305
544.207	0.50075
544.548	0.49835
544.889	0.49596
545.23	0.49346
545.571	0.49094
545.911	0.48819
546.252	0.48538
546.593	0.48285
546.934	0.48051
547.274	0.47791
547.615	0.47528
547.955	0.47272
548.296	0.47029
548.636	0.46763
548.977	0.46509
549.317	0.46279
549.657	0.46014
549.997	0.45754
550.338	0.45508
550.678	0.45255
551.018	0.44974
551.358	0.44704
551.698	0.44421
552.038	0.44154
552.378	0.43888
552.718	0.43629
553.058	0.43372
553.398	0.43129
553.737	0.42867
554.077	0.42584
554.417	0.42335
554.756	0.42075
555.096	0.41814
555.435	0.41552
555.775	0.41302
556.114	0.41043
556.454	0.40759
556.793	0.40507
557.133	0.4027
557.472	0.40007
557.811	0.39753
558.15	0.3951
558.489	0.3925
558.829	0.39021
559.168	0.38767
559.507	0.38536
559.846	0.38282
560.184	0.38043
560.523	0.37798
560.862	0.37543
561.201	0.37318
561.54	0.37072
561.878	0.36821
562.217	0.3658
562.556	0.36345
562.894	0.36087
563.233	0.35855
563.571	0.35634
563.91	0.35388
564.248	0.35133
564.586	0.34897
564.925	0.34659
565.263	0.34435
565.601	0.34212
565.939	0.33974
566.277	0.3375
566.616	0.33525
566.954	0.33315
567.292	0.33072
567.63	0.3282
567.967	0.32596
568.305	0.32369
568.643	0.32159
568.981	0.31948
569.319	0.31747
569.656	0.31509
569.994	0.31295
570.331	0.31088
570.669	0.30863
571.006	0.30655
571.344	0.30445
571.681	0.30241
572.019	0.30054
572.356	0.29854
572.693	0.29641
573.03	0.29446
573.368	0.29234
573.705	0.29027
574.042	0.28813
574.379	0.28629
574.716	0.28461
575.053	0.28276
575.39	0.28103
575.727	0.27905
576.063	0.27721
576.4	0.27506
576.737	0.27345
577.074	0.27189
577.41	0.26991
577.747	0.26824
578.083	0.26643
578.42	0.2646
578.756	0.26289
579.093	0.26103
579.429	0.25922
579.766	0.25768
580.102	0.25597
580.438	0.25432
580.774	0.25258
581.11	0.25096
581.446	0.24929
581.782	0.24762
582.119	0.246
582.454	0.24433
582.79	0.24297
583.126	0.24142
583.462	0.24006
583.798	0.23849
584.134	0.23685
584.469	0.23541
584.805	0.23391
585.141	0.23264
585.476	0.23129
585.812	0.22985
586.147	0.22847
586.482	0.22703
586.818	0.22551
587.153	0.22399
587.488	0.22263
587.824	0.22127
588.159	0.21993
588.494	0.21874
588.829	0.21747
589.164	0.2163
589.499	0.21507
589.834	0.21358
590.169	0.21241
590.504	0.21104
590.839	0.20968
591.174	0.20829
591.508	0.20696
591.843	0.20569
592.178	0.2044
592.512	0.20324
592.847	0.20207
593.181	0.20079
593.516	0.19965
593.85	0.19847
594.185	0.19728
594.519	0.19617
594.853	0.19515
595.187	0.19406
595.522	0.19281
595.856	0.19166
596.19	0.19053
596.524	0.18926
596.858	0.18834
597.192	0.18721
597.526	0.18635
597.86	0.18529
598.194	0.18449
598.527	0.1835
598.861	0.1824
599.195	0.18132
599.528	0.18027
599.862	0.17929
600.196	0.17823
600.529	0.17738
600.863	0.17655
601.196	0.17569
601.529	0.17476
601.863	0.17387
602.196	0.17272
602.529	0.17162
602.862	0.17057
603.196	0.16939
603.529	0.1684
603.862	0.16731
604.195	0.16637
604.528	0.16536
604.861	0.16447
605.193	0.16345
605.526	0.16249
605.859	0.16176
606.192	0.1607
606.524	0.15962
606.857	0.15878
607.19	0.15793
607.522	0.15716
607.855	0.1561
608.187	0.15518
608.52	0.15434
608.852	0.1534
609.184	0.15265
609.517	0.15206
609.849	0.15122
610.181	0.15058
610.513	0.1499
610.845	0.14913
611.177	0.14823
611.509	0.14744
611.841	0.14676
612.173	0.14594
612.505	0.14537
612.837	0.14438
613.169	0.1438
613.5	0.14312
613.832	0.14224
614.164	0.14145
614.495	0.14059
614.827	0.13973
615.158	0.13899
615.49	0.13821
615.821	0.13746
616.152	0.13693
616.484	0.13616
616.815	0.13562
617.146	0.13486
617.477	0.13413
617.808	0.13351
618.14	0.13286
618.471	0.13205
618.802	0.13117
619.133	0.13051
619.463	0.12976
619.794	0.12922
620.125	0.12845
620.456	0.12784
620.787	0.12716
621.117	0.12665
621.448	0.12576
621.778	0.1254
622.109	0.12491
622.439	0.12432
622.77	0.12368
623.1	0.12294
623.43	0.12227
623.761	0.12154
624.091	0.12081
624.421	0.1202
624.751	0.11955
625.081	0.11907
625.412	0.11858
625.742	0.11808
626.072	0.11757
626.401	0.11716
626.731	0.11651
627.061	0.11608
627.391	0.11574
627.721	0.11525
628.05	0.11468
628.38	0.11438
628.71	0.11382
629.039	0.11327
629.369	0.11278
629.698	0.11241
630.028	0.11188
630.357	0.11143
630.686	0.11112
631.015	0.1109
631.345	0.11043
631.674	0.10989
632.003	0.1095
632.332	0.10912
632.661	0.10878
632.99	0.1083
633.319	0.10777
633.648	0.10731
633.977	0.10691
634.306	0.10641
634.634	0.10593
634.963	0.10552
635.292	0.10504
635.62	0.10475
635.949	0.10417
636.277	0.10372
636.606	0.1033
636.934	0.10295
637.263	0.10265
637.591	0.10221
637.919	0.10169
638.248	0.1014
638.576	0.1012
638.904	0.10054
639.232	0.09998
639.56	0.09961
639.888	0.09922
640.216	0.09887
640.544	0.09847
640.872	0.09802
641.2	0.09767
641.528	0.09725
641.855	0.0968
642.183	0.09626
642.511	0.09565
642.838	0.09539
643.166	0.09485
643.493	0.09434
643.821	0.09386
644.148	0.09348
644.475	0.09308
644.803	0.09281
645.13	0.09227
645.457	0.09185
645.784	0.09159
646.112	0.09125
646.439	0.09089
646.766	0.09038
647.093	0.08984
647.42	0.08927
647.746	0.08878
648.073	0.08818
648.4	0.08779
648.727	0.08738
649.053	0.08716
649.38	0.08688
649.707	0.08658
650.033	0.08626
650.36	0.0859
650.686	0.08553
651.013	0.08505
651.339	0.08464
651.665	0.08411
651.992	0.08383
652.318	0.0834
652.644	0.0831
652.97	0.08286
653.296	0.08251
653.622	0.08221
653.948	0.08198
654.274	0.08195
654.6	0.08185
654.926	0.08157
655.252	0.08128
655.578	0.08116
655.903	0.08085
656.229	0.08057
656.555	0.08013
656.88	0.07971
657.206	0.07949
657.531	0.07922
657.857	0.07886
658.182	0.0784
658.507	0.07819
658.833	0.07785
659.158	0.0775
659.483	0.07726
659.808	0.07679
660.133	0.07645
660.458	0.07631
660.783	0.07607
661.108	0.07579
661.433	0.07535
661.758	0.07504
662.083	0.07488
662.408	0.0745
662.732	0.07421
663.057	0.0739
663.382	0.07367
663.706	0.07363
664.031	0.07335
664.355	0.07321
664.68	0.07305
665.004	0.07298
665.328	0.07264
665.653	0.07229
665.977	0.07207
666.301	0.0718
666.625	0.07183
666.949	0.07153
667.273	0.07113
667.597	0.07075
667.921	0.07055
668.245	0.07046
668.569	0.07027
668.893	0.07004
669.217	0.0697
669.54	0.06949
669.864	0.06934
670.188	0.06917
670.511	0.06894
670.835	0.06866
671.158	0.06849
671.482	0.06829
671.805	0.06821
672.128	0.06815
672.452	0.06798
672.775	0.06788
673.098	0.06756
673.421	0.06713
673.744	0.06683
674.068	0.06676
674.391	0.0666
674.714	0.06639
675.036	0.06613
675.359	0.06585
675.682	0.06553
676.005	0.06547
676.328	0.06545
676.65	0.06525
676.973	0.06491
677.295	0.0646
677.618	0.06446
677.94	0.06415
678.263	0.0639
678.585	0.06353
678.908	0.06312
679.23	0.063
679.552	0.0628
679.874	0.06259
680.196	0.0624
680.519	0.06246
680.841	0.06209
681.163	0.062
681.485	0.0617
681.807	0.06145
682.128	0.06145
682.45	0.06146
682.772	0.0612
683.094	0.06073
683.415	0.06043
683.737	0.06042
684.059	0.0603
684.38	0.06009
684.702	0.06004
685.023	0.05982
685.344	0.05949
685.666	0.05954
685.987	0.05955
686.308	0.05903
686.629	0.05891
686.95	0.0589
687.272	0.05853
687.593	0.05857
687.914	0.05826
688.235	0.0582
688.555	0.05804
688.876	0.05788
689.197	0.05772
689.518	0.0575
689.839	0.0576
690.159	0.05756
690.48	0.05744
690.8	0.05741
691.121	0.05729
691.441	0.05702
691.762	0.05694
692.082	0.05702
692.402	0.0567
692.723	0.05629
693.043	0.05637
693.363	0.05619
693.683	0.05591
694.003	0.05578
694.323	0.05548
694.643	0.05554
694.963	0.05538
695.283	0.05526
695.603	0.05485
695.923	0.05467
696.243	0.05464
696.562	0.05427
696.882	0.05413
697.202	0.05376
697.521	0.05335
697.841	0.05305
698.16	0.05295
698.479	0.05279
698.799	0.05245
699.118	0.05238
699.437	0.05224
699.757	0.05212
700.076	0.05203
700.395	0.05191
700.714	0.05162
701.033	0.05157
701.352	0.05122
701.671	0.05106
701.99	0.05095
702.308	0.05097
702.627	0.05054
702.946	0.05049
703.265	0.05042
703.583	0.05026
703.902	0.05022
704.22	0.05021
704.539	0.05019
704.857	0.05006
705.176	0.0499
705.494	0.04985
705.812	0.04972
706.131	0.04964
706.449	0.04978
706.767	0.04965
707.085	0.04949
707.403	0.04942
707.721	0.04937
708.039	0.04916
708.357	0.04887
708.675	0.04865
708.993	0.0485
709.31	0.04863
709.628	0.04836
709.946	0.04816
710.263	0.04809
710.581	0.04796
710.898	0.04788
711.216	0.04775
711.533	0.04758
711.851	0.04741
712.168	0.04732
712.485	0.04717
712.802	0.04722
713.12	0.04667
713.437	0.04664
713.754	0.04666
714.071	0.04658
714.388	0.04626
714.705	0.04624
715.022	0.04634
715.338	0.04619
715.655	0.04623
715.972	0.04605
716.289	0.04604
716.605	0.0459
716.922	0.04569
717.238	0.04559
717.555	0.04533
717.871	0.04513
718.188	0.04493
718.504	0.04475
718.82	0.04465
719.136	0.04465
719.453	0.04442
719.769	0.04425
720.085	0.04398
720.401	0.04365
720.717	0.04357
721.033	0.04359
721.349	0.04346
721.665	0.04327
721.98	0.04317
722.296	0.04292
722.612	0.04277
722.927	0.04264
723.243	0.0425
723.559	0.04239
723.874	0.04219
724.19	0.0421
724.505	0.04225
724.82	0.04223
725.136	0.04216
725.451	0.04202
725.766	0.04195
726.081	0.04184
726.396	0.04202
726.711	0.04215
727.026	0.04222
727.341	0.04234
727.656	0.04215
727.971	0.04209
728.286	0.04207
728.601	0.04204
728.916	0.04182
729.23	0.04189
729.545	0.04166
729.859	0.04179
730.174	0.04163
730.488	0.04164
730.803	0.04173
731.117	0.04145
731.431	0.0415
731.746	0.0417
732.06	0.04165
732.374	0.0414
732.688	0.04127
733.002	0.04114
733.316	0.041
733.63	0.04097
733.944	0.04066
734.258	0.0407
734.572	0.04063
734.886	0.04052
735.199	0.04015
735.513	0.04005
735.827	0.03976
736.14	0.03995
736.454	0.03986
736.767	0.03975
737.081	0.0398
737.394	0.03966
737.708	0.03954
738.021	0.03924
738.334	0.03913
738.647	0.03914
738.96	0.03888
739.273	0.03864
739.587	0.0386
739.9	0.03848
740.212	0.03842
740.525	0.03837
740.838	0.03821
741.151	0.03828
741.464	0.03819
741.776	0.03829
742.089	0.03859
742.402	0.03846
742.714	0.03816
743.027	0.0379
743.339	0.0379
743.651	0.03764
743.964	0.0375
744.276	0.03752
744.588	0.03758
744.901	0.03735
745.213	0.03729
745.525	0.03724
745.837	0.03739
746.149	0.03721
746.461	0.03682
746.773	0.0365
747.085	0.03654
747.396	0.0364
747.708	0.03609
748.02	0.03607
748.331	0.03609
748.643	0.03566
748.955	0.03564
749.266	0.03566
749.577	0.03563
749.889	0.03549
750.2	0.03541
750.512	0.03555
750.823	0.03532
751.134	0.03507
751.445	0.0349
751.756	0.03482
752.067	0.0349
752.378	0.0347
752.689	0.03462
753	0.03461
753.311	0.03475
753.622	0.03474
753.932	0.03482
754.243	0.03492
754.554	0.03478
754.864	0.03464
755.175	0.03486
755.485	0.03467
755.796	0.03458
756.106	0.03443
756.417	0.03448
756.727	0.03442
757.037	0.03423
757.347	0.03458
757.658	0.03462
757.968	0.0345
758.278	0.03422
758.588	0.03434
758.898	0.0344
759.208	0.03437
759.517	0.03444
759.827	0.03432
760.137	0.03412
760.447	0.03378
760.756	0.03373
761.066	0.03354
761.375	0.03355
761.685	0.03307
761.994	0.03315
762.304	0.03323
762.613	0.03352
762.922	0.0334
763.232	0.03368
763.541	0.03358
763.85	0.03331
764.159	0.03293
764.468	0.03269
764.777	0.0328
765.086	0.03232
765.395	0.03204
765.704	0.03231
766.013	0.03226
766.321	0.03209
766.63	0.03205
766.939	0.03225
767.247	0.03205
767.556	0.03222
767.864	0.03213
768.173	0.03262
768.481	0.03259
768.789	0.03238
769.098	0.03182
769.406	0.03174
769.714	0.03145
770.022	0.03137
770.33	0.03116
770.638	0.03155
770.946	0.03187
771.254	0.03162
771.562	0.03171
771.87	0.03183
772.178	0.03164
772.486	0.03171
772.793	0.03177
773.101	0.03151
773.408	0.03133
773.716	0.03185
774.023	0.0316
774.331	0.03162
774.638	0.03139
774.946	0.0315
775.253	0.0315
775.56	0.03183
775.867	0.03203
776.174	0.03196
776.481	0.03197
776.788	0.03178
777.095	0.03161
777.402	0.03157
777.709	0.03158
778.016	0.03174
778.323	0.03182
778.63	0.03152
778.936	0.03163
779.243	0.03132
779.549	0.03156
779.856	0.03174
780.162	0.03149
780.469	0.03127
780.775	0.03112
781.082	0.0309
781.388	0.03078
781.694	0.03067
782	0.03069
782.306	0.03067
782.612	0.03095
782.918	0.03097
783.224	0.03141
783.53	0.03155
783.836	0.03158
784.142	0.03192
784.448	0.03191
784.753	0.03176
785.059	0.03209
785.365	0.03171
785.67	0.03196
785.976	0.03211
786.281	0.03199
786.586	0.03137
786.892	0.03166
787.197	0.03174
787.502	0.03187
787.808	0.03189
788.113	0.03179
788.418	0.0317
788.723	0.0315
789.028	0.03152
789.333	0.0316
789.638	0.03172
789.942	0.03164
790.247	0.03153
790.552	0.03116
790.857	0.03128
791.161	0.03143
791.466	0.03109
791.77	0.03097
792.075	0.03089
792.379	0.0304
792.684	0.0306
792.988	0.03115
793.292	0.03143
793.597	0.03141
793.901	0.03173
794.205	0.03177
794.509	0.03184
794.813	0.03168
795.117	0.03151
795.421	0.03084
795.725	0.03091
796.029	0.03079
796.332	0.03096
796.636	0.03116
796.94	0.03106
797.243	0.03086
797.547	0.03041
797.85	0.03052
798.154	0.03095
798.457	0.03067
798.761	0.03112
799.064	0.03084
799.367	0.03108
799.67	0.03046
799.973	0.03047
800.277	0.02992
800.58	0.02979
800.883	0.02973
801.186	0.02954
801.488	0.02949
801.791	0.02991
802.094	0.02943
802.397	0.02918
802.699	0.029
803.002	0.02893
803.305	0.02894
803.607	0.02873
803.91	0.0289
804.212	0.02861
804.515	0.02838
804.817	0.02877
805.119	0.02857
805.421	0.02882
805.724	0.0277
806.026	0.02798
806.328	0.02782
806.63	0.02824
806.932	0.0284
807.234	0.02844
807.535	0.02871
807.837	0.02897
808.139	0.02882
808.441	0.02916
808.742	0.02942
809.044	0.0291
809.346	0.02914
809.647	0.0288
809.948	0.02953
810.25	0.02916
810.551	0.0294
810.853	0.02917
811.154	0.02904
811.455	0.02887
811.756	0.02881
812.057	0.02916
812.358	0.02891
812.659	0.0291
812.96	0.02847
813.261	0.02846
813.562	0.02842
813.863	0.02866
814.163	0.02828
814.464	0.0283
814.765	0.02779
815.065	0.02764
815.366	0.02777
815.666	0.02771
815.967	0.02771
816.267	0.02687
816.567	0.02689
816.868	0.0266
817.168	0.02662
817.468	0.02722
817.768	0.02692
818.068	0.02673
818.368	0.02709
818.668	0.0273
818.968	0.02753
819.268	0.02808
819.568	0.02717
819.867	0.02684
820.167	0.0261
820.467	0.02595
820.766	0.02615
821.066	0.02676
821.365	0.02653
821.665	0.02641
821.964	0.02564
822.263	0.02649
822.563	0.02672
822.862	0.02726
823.161	0.0284
823.46	0.02844
823.759	0.02698
824.058	0.0276
824.357	0.0274
824.656	0.02722
824.955	0.02733
825.254	0.02668
825.552	0.02673
825.851	0.0279
826.15	0.02882
826.448	0.02831
826.747	0.02858
827.045	0.0284
827.344	0.02752
827.642	0.0273
827.941	0.02802
828.239	0.02892
828.537	0.02762
828.835	0.02839
829.133	0.02824
829.432	0.02747
829.73	0.02822
830.028	0.02849
830.325	0.02831
830.623	0.02842
830.921	0.02864
831.219	0.02825
831.517	0.02894
831.814	0.02888
832.112	0.02774
832.409	0.02722
832.707	0.02828
833.004	0.02884
833.302	0.02859
833.599	0.02973
833.896	0.03012
834.194	0.02993
834.491	0.02975
834.788	0.03169
835.085	0.03068
835.382	0.03099
835.679	0.03072
835.976	0.03144
836.273	0.03162
836.57	0.03139
836.866	0.03215
837.163	0.03155
837.46	0.03114
837.756	0.03007
838.053	0.03007
838.349	0.03155
838.646	0.03265
838.942	0.03415
839.239	0.03382
839.535	0.03353
839.831	0.03277
840.127	0.03195
840.423	0.03105
840.72	0.03153
841.016	0.03063
841.312	0.03004
841.607	0.03039
841.903	0.0309
842.199	0.03054
842.495	0.03092
842.791	0.03029
843.086	0.03101
843.382	0.03281
843.677	0.03394
843.973	0.03598
844.268	0.03509
844.564	0.03515
844.859	0.03353
845.154	0.03354
845.45	0.03225
845.745	0.03312
846.04	0.03495
846.335	0.03436
846.63	0.03567
846.925	0.03824
847.22	0.03843
847.515	0.03829
847.81	0.03838
848.104	0.03595
848.399	0.03302
848.694	0.03661
848.988	0.04103
849.283	0.03805
849.578	0.03977
849.872	0.04013
850.166	0.03986
850.461	0.04571
850.755	0.04767
851.049	0.04568
851.343	0.04176
851.638	0.04575
851.932	0.0444
852.226	0.04211
852.52	0.04286
852.814	0.0397
853.107	0.03715
853.401	0.03669
853.695	0.0378
853.989	0.03488
854.282	0.03612
854.576	0.03584
854.869	0.03092
855.163	0.02577
855.456	0.02777
855.75	0.02822
856.043	0.03116
856.336	0.03083
856.63	0.02553
856.923	0.01945
857.216	0.02138
857.509	0.02416
857.802	0.02371
858.095	0.01793
858.388	0.02535
858.681	0.02929
858.974	0.03764
859.266	0.0359
859.559	0.04245
859.852	0.0402
860.144	0.04414
860.437	0.04863
860.729	0.05779
861.022	0.05837
861.314	0.05803
861.606	0.05807
861.899	0.05517
862.191	0.05472
862.483	0.05212
862.775	0.05595
863.067	0.05671
863.359	0.05823
863.651	0.05803
863.943	0.0577
864.235	0.06311
864.527	0.05758
864.819	0.05592
865.11	0.04926
865.402	0.05043
865.693	0.04758
865.985	0.05608
866.276	0.05118
866.568	0.0542
866.859	0.05276
867.151	0.05423
867.442	0.05721
867.733	0.05484
868.024	0.04531
868.315	0.04348
868.606	0.04363
868.897	0.04283
869.188	0.04801
869.479	0.05129
869.77	0.05309
870.061	0.05551
870.351	0.05965
870.642	0.06028
870.933	0.06424
871.223	0.06918
871.514	0.06669
871.804	0.06674
872.095	0.06253
872.385	0.07241
872.675	0.06715
