Data from initial mio_Absorbance_04.txt Node
Date: Thu Jan 12 12:15:32 EST 2023
User: UV-vis
Spectrometer: FLMS04918
Trigger mode: 0
Integration Time (sec): 2.340000E-3
Scans to average: 100
Electric dark correction enabled: true
Nonlinearity correction enabled: false
Boxcar width: 10
XAxis mode: Wavelengths
Number of Pixels in Spectrum: 2048
>>>>>Begin Spectral Data<<<<<
179.23	-0.14417
179.611	-0.25877
179.992	-0.14789
180.373	-0.1464
180.754	-0.21723
181.134	-0.41901
181.515	-0.43012
181.896	-0.38673
182.276	-0.25722
182.657	-0.24751
183.038	-0.32777
183.418	-0.36862
183.799	-0.32511
184.179	0.07447
184.56	0.01833
184.94	0.00428
185.32	0.00434
185.701	0.00348
186.081	0.00455
186.461	0.00476
186.842	0.00266
187.222	0.00219
187.602	0.00036
187.982	0.00033
188.362	0.00155
188.742	0.00154
189.122	0.00113
189.502	0.00096
189.882	0.00105
190.262	0.00138
190.642	0.0017
191.022	0.0006
191.402	0.00006
191.781	0.00054
192.161	-0.00088
192.541	-0.00161
192.92	-0.00169
193.3	-0.00176
193.68	-0.00164
194.059	-0.00222
194.439	-0.00258
194.818	-0.00279
195.198	-0.00299
195.577	-0.00307
195.957	-0.00255
196.336	-0.00347
196.715	-0.00332
197.094	-0.00349
197.474	-0.00323
197.853	-0.00365
198.232	-0.00367
198.611	-0.00384
198.99	-0.00319
199.369	-0.00333
199.748	-0.00392
200.127	-0.00402
200.506	-0.00334
200.885	-0.00326
201.264	-0.00356
201.643	-0.00393
202.022	-0.00383
202.401	-0.00338
202.779	-0.00281
203.158	-0.00259
203.537	-0.00283
203.915	-0.00347
204.294	-0.00342
204.673	-0.0045
205.051	-0.00459
205.43	-0.00538
205.808	-0.00528
206.187	-0.00529
206.565	-0.00478
206.943	-0.00525
207.322	-0.00501
207.7	-0.00484
208.078	-0.0042
208.456	-0.00405
208.835	-0.00442
209.213	-0.00447
209.591	-0.00437
209.969	-0.00382
210.347	-0.00412
210.725	-0.00398
211.103	-0.00419
211.481	-0.00362
211.859	-0.00324
212.237	-0.00375
212.614	-0.00304
212.992	-0.00361
213.37	-0.004
213.748	-0.00302
214.125	-0.0031
214.503	-0.00368
214.881	-0.00306
215.258	-0.00318
215.636	-0.00326
216.013	-0.00363
216.391	-0.00394
216.768	-0.00371
217.145	-0.00417
217.523	-0.00411
217.9	-0.00512
218.277	-0.00512
218.655	-0.00536
219.032	-0.0052
219.409	-0.00498
219.786	-0.00501
220.163	-0.00448
220.54	-0.00456
220.917	-0.00338
221.294	-0.00237
221.671	-0.00288
222.048	-0.00335
222.425	-0.00425
222.802	-0.00492
223.179	-0.00526
223.556	-0.00497
223.932	-0.00499
224.309	-0.00557
224.686	-0.0049
225.062	-0.00404
225.439	-0.00392
225.815	-0.00325
226.192	-0.00364
226.568	-0.00355
226.945	-0.00344
227.321	-0.00363
227.698	-0.00343
228.074	-0.00338
228.45	-0.00321
228.827	-0.00426
229.203	-0.00482
229.579	-0.00501
229.955	-0.00432
230.331	-0.00321
230.707	-0.00245
231.083	-0.00132
231.46	-0.00176
231.835	-0.001
232.211	-0.00058
232.587	-0.00094
232.963	-0.0012
233.339	-0.00171
233.715	-0.00159
234.091	-0.0017
234.466	-0.00126
234.842	-0.00128
235.218	-0.00182
235.593	-0.00237
235.969	-0.0024
236.344	-0.00221
236.72	-0.00174
237.095	-0.00148
237.471	-0.00135
237.846	-0.00135
238.222	-0.00205
238.597	-0.00274
238.972	-0.00346
239.348	-0.00335
239.723	-0.00342
240.098	-0.00284
240.473	-0.00231
240.848	-0.00203
241.223	-0.00233
241.598	-0.00295
241.973	-0.00252
242.348	-0.00201
242.723	-0.00208
243.098	-0.00117
243.473	-0.00095
243.848	-0.00056
244.223	-0.0007
244.597	-0.00091
244.972	-0.00072
245.347	-0.00052
245.721	-0.00066
246.096	-0.00044
246.47	0.0001
246.845	0.00002
247.219	-0.00006
247.594	-0.00087
247.968	-0.00131
248.343	-0.0018
248.717	-0.00194
249.091	-0.0016
249.466	-0.00127
249.84	-0.0016
250.214	-0.00287
250.588	-0.00329
250.962	-0.00325
251.336	-0.00391
251.71	-0.00448
252.084	-0.00495
252.458	-0.005
252.832	-0.00524
253.206	-0.00561
253.58	-0.00601
253.954	-0.00581
254.328	-0.00581
254.702	-0.00577
255.075	-0.00551
255.449	-0.00488
255.823	-0.00433
256.196	-0.00456
256.57	-0.00477
256.943	-0.00465
257.317	-0.00475
257.69	-0.00478
258.064	-0.00392
258.437	-0.00309
258.81	-0.0039
259.184	-0.00314
259.557	-0.00302
259.93	-0.00278
260.303	-0.00265
260.677	-0.00229
261.05	-0.00224
261.423	-0.00215
261.796	-0.00204
262.169	-0.0024
262.542	-0.00247
262.915	-0.00244
263.288	-0.0027
263.661	-0.00305
264.033	-0.00298
264.406	-0.00261
264.779	-0.00265
265.152	-0.00243
265.524	-0.00231
265.897	-0.00268
266.27	-0.00333
266.642	-0.00308
267.015	-0.00333
267.387	-0.00309
267.76	-0.00344
268.132	-0.00353
268.504	-0.00365
268.877	-0.0038
269.249	-0.00328
269.621	-0.00324
269.994	-0.00304
270.366	-0.00317
270.738	-0.00326
271.11	-0.00273
271.482	-0.00312
271.854	-0.00334
272.226	-0.00352
272.598	-0.00353
272.97	-0.00375
273.342	-0.0039
273.714	-0.00414
274.086	-0.00382
274.458	-0.00361
274.829	-0.00353
275.201	-0.0037
275.573	-0.00338
275.944	-0.00315
276.316	-0.00343
276.688	-0.00323
277.059	-0.00337
277.431	-0.00343
277.802	-0.00297
278.173	-0.00221
278.545	-0.00134
278.916	-0.0003
279.287	0.00165
279.659	0.00364
280.03	0.00626
280.401	0.0101
280.772	0.01463
281.143	0.0203
281.515	0.02792
281.886	0.03673
282.257	0.04731
282.628	0.05925
282.998	0.07175
283.369	0.08499
283.74	0.09757
284.111	0.10948
284.482	0.11993
284.853	0.12844
285.223	0.13509
285.594	0.13963
285.965	0.14254
286.335	0.14373
286.706	0.14387
287.076	0.14313
287.447	0.14175
287.817	0.13972
288.188	0.13695
288.558	0.13354
288.928	0.12957
289.299	0.12474
289.669	0.11908
290.039	0.11234
290.409	0.10497
290.779	0.09709
291.149	0.08867
291.52	0.08036
291.89	0.07217
292.26	0.06432
292.629	0.05715
292.999	0.05063
293.369	0.04463
293.739	0.03932
294.109	0.03468
294.479	0.03058
294.848	0.02701
295.218	0.02392
295.588	0.02115
295.957	0.0187
296.327	0.01661
296.696	0.01463
297.066	0.01271
297.435	0.01094
297.805	0.00932
298.174	0.00776
298.544	0.00631
298.913	0.00496
299.282	0.00367
299.651	0.00249
300.021	0.0014
300.39	0.00037
300.759	-0.00058
301.128	-0.00142
301.497	-0.0022
301.866	-0.00292
302.235	-0.00355
302.604	-0.00412
302.973	-0.00462
303.342	-0.00503
303.71	-0.00535
304.079	-0.00566
304.448	-0.0059
304.817	-0.00607
305.185	-0.00619
305.554	-0.00606
305.923	-0.00583
306.291	-0.0056
306.66	-0.00537
307.028	-0.00512
307.397	-0.00486
307.765	-0.00459
308.133	-0.00431
308.502	-0.00403
308.87	-0.00372
309.238	-0.00339
309.606	-0.00306
309.975	-0.00271
310.343	-0.00236
310.711	-0.00201
311.079	-0.00168
311.447	-0.00135
311.815	-0.00104
312.183	-0.00072
312.551	-0.00041
312.919	-0.00014
313.286	-0.00025
313.654	-0.0006
314.022	-0.00101
314.39	-0.00144
314.757	-0.00192
315.125	-0.00244
315.492	-0.00299
315.86	-0.00337
316.228	-0.00349
316.595	-0.00349
316.962	-0.00349
317.33	-0.00349
317.697	-0.00349
318.065	-0.00349
318.432	-0.00349
318.799	-0.00349
319.166	-0.00349
319.534	-0.00349
319.901	-0.00349
320.268	-0.00348
320.635	-0.00345
321.002	-0.00327
321.369	-0.00292
321.736	-0.00251
322.103	-0.00207
322.47	-0.0016
322.836	-0.00108
323.203	-0.00053
323.57	-0.00015
323.937	-0.00004
324.303	-0.00004
324.67	-0.00004
325.037	-0.00004
325.403	-0.00004
325.77	-0.00004
326.136	-0.00004
326.503	-0.00004
326.869	-0.00004
327.235	-0.00004
327.602	-0.00004
327.968	-0.00004
328.334	-0.00004
328.7	-0.00004
329.067	-0.00004
329.433	-0.00004
329.799	-0.00004
330.165	-0.00004
330.531	-0.00004
330.897	-0.00004
331.263	-0.00004
331.629	-0.00004
331.995	-0.00004
332.36	-0.00004
332.726	-0.00004
333.092	-0.00004
333.458	-0.00004
333.823	-0.00004
334.189	-0.00004
334.554	-0.00004
334.92	-0.00004
335.286	-0.00004
335.651	-0.00004
336.016	-0.00004
336.382	-0.00004
336.747	-0.00004
337.113	-0.00004
337.478	-0.00004
337.843	-0.00004
338.208	-0.00004
338.573	-0.00004
338.939	-0.00004
339.304	-0.00004
339.669	-0.00004
340.034	-0.00004
340.399	-0.00004
340.764	-0.00004
341.129	-0.00004
341.493	-0.00004
341.858	-0.00004
342.223	-0.00004
342.588	-0.00004
342.952	-0.00004
343.317	-0.00004
343.682	-0.00004
344.046	-0.00004
344.411	-0.00004
344.775	-0.00004
345.14	-0.00004
345.504	-0.00004
345.869	-0.00004
346.233	-0.00004
346.597	-0.00004
346.962	-0.00004
347.326	-0.00004
347.69	-0.00004
348.054	-0.00004
348.418	-0.00004
348.782	-0.00004
349.146	-0.00004
349.51	-0.00004
349.874	-0.00004
350.238	-0.00004
350.602	-0.00004
350.966	-0.00004
351.33	-0.00004
351.693	-0.00004
352.057	-0.00004
352.421	-0.00004
352.784	-0.00004
353.148	-0.00004
353.512	-0.00004
353.875	-0.00004
354.239	-0.00004
354.602	-0.00004
354.966	-0.00004
355.329	-0.00011
355.692	-0.00022
356.056	-0.00042
356.419	-0.00067
356.782	-0.00098
357.145	-0.00133
357.508	-0.0017
357.871	-0.00207
358.234	-0.00244
358.597	-0.00282
358.96	-0.00318
359.323	-0.00355
359.686	-0.00391
360.049	-0.00429
360.412	-0.00464
360.775	-0.00499
361.137	-0.00534
361.5	-0.00568
361.863	-0.00602
362.225	-0.00634
362.588	-0.0066
362.951	-0.00676
363.313	-0.00687
363.675	-0.00681
364.038	-0.00686
364.4	-0.00687
364.763	-0.00685
365.125	-0.00684
365.487	-0.00681
365.849	-0.00678
366.212	-0.00675
366.574	-0.00673
366.936	-0.00671
367.298	-0.00669
367.66	-0.00664
368.022	-0.00662
368.384	-0.00662
368.746	-0.00659
369.108	-0.00656
369.469	-0.00655
369.831	-0.00656
370.193	-0.00661
370.555	-0.00668
370.916	-0.00677
371.278	-0.00691
371.64	-0.0069
372.001	-0.00687
372.363	-0.00682
372.724	-0.00678
373.086	-0.00674
373.447	-0.00671
373.808	-0.00667
374.17	-0.00663
374.531	-0.00657
374.892	-0.00652
375.253	-0.00646
375.615	-0.00641
375.976	-0.00635
376.337	-0.00634
376.698	-0.00632
377.059	-0.00629
377.42	-0.00628
377.781	-0.00628
378.141	-0.0063
378.502	-0.00629
378.863	-0.00629
379.224	-0.0063
379.585	-0.00629
379.945	-0.00629
380.306	-0.00627
380.666	-0.00626
381.027	-0.00625
381.388	-0.00623
381.748	-0.0062
382.108	-0.00619
382.469	-0.00619
382.829	-0.00618
383.19	-0.00616
383.55	-0.00613
383.91	-0.00607
384.27	-0.00601
384.63	-0.00594
384.991	-0.00586
385.351	-0.00579
385.711	-0.00571
386.071	-0.00566
386.431	-0.00561
386.791	-0.00556
387.15	-0.00551
387.51	-0.00545
387.87	-0.0054
388.23	-0.00531
388.589	-0.0051
388.949	-0.00481
389.309	-0.00454
389.668	-0.0044
390.028	-0.00433
390.387	-0.00428
390.747	-0.00426
391.106	-0.00425
391.466	-0.00425
391.825	-0.00428
392.184	-0.0043
392.544	-0.00432
392.903	-0.00436
393.262	-0.00437
393.621	-0.00437
393.98	-0.00436
394.339	-0.00434
394.698	-0.00431
395.057	-0.00429
395.416	-0.00428
395.775	-0.00432
396.134	-0.00449
396.493	-0.00479
396.852	-0.00508
397.211	-0.00521
397.569	-0.00532
397.928	-0.0054
398.287	-0.00547
398.645	-0.00554
399.004	-0.00558
399.362	-0.00559
399.721	-0.00563
400.079	-0.00566
400.438	-0.00563
400.796	-0.00562
401.154	-0.00561
401.512	-0.00559
401.871	-0.00556
402.229	-0.00556
402.587	-0.00558
402.945	-0.0056
403.303	-0.00561
403.661	-0.00562
404.019	-0.00561
404.377	-0.00555
404.735	-0.00548
405.093	-0.00535
405.451	-0.00526
405.808	-0.00514
406.166	-0.00502
406.524	-0.00494
406.882	-0.00489
407.239	-0.00484
407.597	-0.00478
407.954	-0.00476
408.312	-0.00473
408.669	-0.0047
409.027	-0.0047
409.384	-0.0047
409.741	-0.00468
410.099	-0.00465
410.456	-0.00461
410.813	-0.00459
411.17	-0.00456
411.527	-0.00455
411.884	-0.00458
412.242	-0.00464
412.599	-0.00471
412.956	-0.00478
413.312	-0.00483
413.669	-0.00494
414.026	-0.00502
414.383	-0.00512
414.74	-0.00517
415.096	-0.00523
415.453	-0.0053
415.81	-0.00539
416.166	-0.00549
416.523	-0.00563
416.879	-0.00573
417.236	-0.00583
417.592	-0.00593
417.949	-0.00601
418.305	-0.00607
418.661	-0.00616
419.018	-0.00625
419.374	-0.00634
419.73	-0.00645
420.086	-0.00658
420.442	-0.00671
420.798	-0.00686
421.154	-0.00697
421.51	-0.00708
421.866	-0.00716
422.222	-0.00727
422.578	-0.00741
422.934	-0.00753
423.29	-0.00764
423.646	-0.00773
424.001	-0.00778
424.357	-0.00792
424.713	-0.00802
425.068	-0.00815
425.424	-0.00831
425.779	-0.00844
426.135	-0.00854
426.49	-0.00856
426.845	-0.00853
427.201	-0.00848
427.556	-0.00842
427.911	-0.00834
428.266	-0.00828
428.622	-0.00822
428.977	-0.00816
429.332	-0.00807
429.687	-0.008
430.042	-0.00778
430.397	-0.00761
430.752	-0.00755
431.107	-0.00745
431.461	-0.00737
431.816	-0.0073
432.171	-0.00731
432.526	-0.00722
432.88	-0.00729
433.235	-0.00732
433.59	-0.00728
433.944	-0.00738
434.299	-0.00745
434.653	-0.00754
435.008	-0.00758
435.362	-0.00758
435.716	-0.00759
436.071	-0.00761
436.425	-0.0076
436.779	-0.00764
437.133	-0.00763
437.487	-0.00771
437.841	-0.00781
438.195	-0.00784
438.549	-0.00791
438.903	-0.00796
439.257	-0.00801
439.611	-0.00804
439.965	-0.00816
440.319	-0.00812
440.673	-0.00818
441.026	-0.00824
441.38	-0.0082
441.734	-0.00818
442.087	-0.00819
442.441	-0.00811
442.794	-0.00816
443.148	-0.00817
443.501	-0.00813
443.855	-0.00819
444.208	-0.0081
444.561	-0.00812
444.915	-0.00814
445.268	-0.00812
445.621	-0.00816
445.974	-0.00823
446.327	-0.00824
446.68	-0.00828
447.033	-0.00837
447.386	-0.00842
447.739	-0.00857
448.092	-0.00863
448.445	-0.0087
448.798	-0.00877
449.15	-0.00889
449.503	-0.00895
449.856	-0.00912
450.209	-0.00925
450.561	-0.00938
450.914	-0.00952
451.266	-0.0096
451.619	-0.0098
451.971	-0.01
452.323	-0.0102
452.676	-0.01041
453.028	-0.01055
453.38	-0.01074
453.733	-0.01097
454.085	-0.01111
454.437	-0.01123
454.789	-0.01142
455.141	-0.01159
455.493	-0.01174
455.845	-0.01195
456.197	-0.01216
456.549	-0.01234
456.901	-0.01255
457.253	-0.01271
457.604	-0.01286
457.956	-0.01307
458.308	-0.01326
458.659	-0.01345
459.011	-0.01365
459.362	-0.01377
459.714	-0.01389
460.065	-0.01409
460.417	-0.01423
460.768	-0.01434
461.12	-0.01456
461.471	-0.01474
461.822	-0.01494
462.173	-0.01516
462.525	-0.01531
462.876	-0.01549
463.227	-0.01563
463.578	-0.01579
463.929	-0.01596
464.28	-0.01618
464.631	-0.01638
464.982	-0.01654
465.332	-0.01667
465.683	-0.01682
466.034	-0.01696
466.385	-0.01713
466.735	-0.01729
467.086	-0.0175
467.437	-0.01758
467.787	-0.01774
468.138	-0.01789
468.488	-0.01797
468.839	-0.01816
469.189	-0.01832
469.539	-0.01841
469.89	-0.01857
470.24	-0.01874
470.59	-0.01886
470.94	-0.01904
471.29	-0.01921
471.64	-0.01934
471.99	-0.01946
472.34	-0.01965
472.69	-0.01984
473.04	-0.02
473.39	-0.02015
473.74	-0.02032
474.09	-0.02051
474.439	-0.02061
474.789	-0.02081
475.139	-0.02099
475.488	-0.02126
475.838	-0.02144
476.188	-0.02167
476.537	-0.02186
476.886	-0.02206
477.236	-0.02224
477.585	-0.02241
477.935	-0.02263
478.284	-0.02283
478.633	-0.02302
478.982	-0.0232
479.331	-0.0234
479.68	-0.02353
480.03	-0.02363
480.379	-0.02379
480.728	-0.02398
481.076	-0.02413
481.425	-0.0243
481.774	-0.02449
482.123	-0.02466
482.472	-0.02479
482.821	-0.02493
483.169	-0.02513
483.518	-0.02524
483.866	-0.02542
484.215	-0.02558
484.563	-0.02573
484.912	-0.02592
485.26	-0.02609
485.609	-0.02625
485.957	-0.0265
486.305	-0.02668
486.654	-0.02684
487.002	-0.02702
487.35	-0.02723
487.698	-0.02743
488.046	-0.02763
488.394	-0.02774
488.742	-0.02792
489.09	-0.02811
489.438	-0.02824
489.786	-0.02844
490.134	-0.0286
490.482	-0.02874
490.829	-0.02893
491.177	-0.02903
491.525	-0.02916
491.872	-0.02931
492.22	-0.02949
492.567	-0.02961
492.915	-0.02973
493.262	-0.0298
493.61	-0.02993
493.957	-0.03004
494.304	-0.03017
494.652	-0.03027
494.999	-0.03045
495.346	-0.03055
495.693	-0.0307
496.04	-0.03082
496.387	-0.03092
496.734	-0.03106
497.081	-0.03116
497.428	-0.03123
497.775	-0.03132
498.122	-0.03142
498.469	-0.03153
498.816	-0.0316
499.162	-0.03167
499.509	-0.03171
499.856	-0.03176
500.202	-0.03181
500.549	-0.03186
500.895	-0.03189
501.242	-0.03191
501.588	-0.03197
501.935	-0.03199
502.281	-0.03195
502.627	-0.032
502.973	-0.03206
503.32	-0.03206
503.666	-0.0321
504.012	-0.03212
504.358	-0.03217
504.704	-0.03218
505.05	-0.03219
505.396	-0.03218
505.742	-0.03219
506.088	-0.03224
506.433	-0.03229
506.779	-0.03232
507.125	-0.03239
507.471	-0.03239
507.816	-0.03239
508.162	-0.03246
508.507	-0.03253
508.853	-0.03256
509.198	-0.03262
509.544	-0.03269
509.889	-0.03273
510.234	-0.03275
510.58	-0.03279
510.925	-0.03281
511.27	-0.03284
511.615	-0.03283
511.96	-0.03285
512.306	-0.03285
512.651	-0.03288
512.996	-0.03291
513.341	-0.03293
513.685	-0.03295
514.03	-0.03292
514.375	-0.03296
514.72	-0.03298
515.065	-0.03305
515.409	-0.03301
515.754	-0.03299
516.099	-0.03298
516.443	-0.03299
516.788	-0.03297
517.132	-0.03298
517.476	-0.03295
517.821	-0.03295
518.165	-0.03298
518.51	-0.03298
518.854	-0.033
519.198	-0.03304
519.542	-0.0331
519.886	-0.03313
520.23	-0.03316
520.574	-0.03318
520.918	-0.03317
521.262	-0.03323
521.606	-0.03325
521.95	-0.03331
522.294	-0.03333
522.638	-0.03337
522.981	-0.03341
523.325	-0.03341
523.669	-0.03341
524.012	-0.03348
524.356	-0.03351
524.699	-0.03357
525.043	-0.03361
525.386	-0.03361
525.73	-0.03363
526.073	-0.03371
526.416	-0.03375
526.76	-0.03382
527.103	-0.03385
527.446	-0.03385
527.789	-0.03384
528.132	-0.03384
528.475	-0.03382
528.818	-0.03378
529.161	-0.03376
529.504	-0.03379
529.847	-0.03382
530.19	-0.03386
530.532	-0.03391
530.875	-0.03398
531.218	-0.03397
531.56	-0.03398
531.903	-0.03399
532.246	-0.034
532.588	-0.03404
532.93	-0.03408
533.273	-0.0341
533.615	-0.03417
533.958	-0.03418
534.3	-0.03424
534.642	-0.03431
534.984	-0.03437
535.326	-0.03448
535.669	-0.03455
536.011	-0.03463
536.353	-0.03468
536.695	-0.03471
537.037	-0.03473
537.378	-0.03479
537.72	-0.03483
538.062	-0.03485
538.404	-0.0349
538.746	-0.03494
539.087	-0.03496
539.429	-0.03499
539.77	-0.03502
540.112	-0.03502
540.454	-0.03502
540.795	-0.03499
541.136	-0.03496
541.478	-0.03498
541.819	-0.035
542.16	-0.03506
542.502	-0.03502
542.843	-0.03508
543.184	-0.03513
543.525	-0.03517
543.866	-0.03521
544.207	-0.03524
544.548	-0.03521
544.889	-0.03523
545.23	-0.03526
545.571	-0.03532
545.911	-0.03539
546.252	-0.03549
546.593	-0.03553
546.934	-0.03564
547.274	-0.03573
547.615	-0.03581
547.955	-0.03588
548.296	-0.036
548.636	-0.03605
548.977	-0.03614
549.317	-0.0362
549.657	-0.03634
549.997	-0.03639
550.338	-0.03645
550.678	-0.03647
551.018	-0.03651
551.358	-0.03665
551.698	-0.03677
552.038	-0.03684
552.378	-0.03693
552.718	-0.03695
553.058	-0.03698
553.398	-0.03703
553.737	-0.03714
554.077	-0.03719
554.417	-0.03723
554.756	-0.03728
555.096	-0.03732
555.435	-0.03734
555.775	-0.0374
556.114	-0.03743
556.454	-0.03746
556.793	-0.03749
557.133	-0.03753
557.472	-0.03758
557.811	-0.03767
558.15	-0.03775
558.489	-0.03776
558.829	-0.03778
559.168	-0.03785
559.507	-0.03792
559.846	-0.03798
560.184	-0.03801
560.523	-0.03802
560.862	-0.03803
561.201	-0.03805
561.54	-0.0381
561.878	-0.03809
562.217	-0.03813
562.556	-0.03814
562.894	-0.03815
563.233	-0.03812
563.571	-0.03816
563.91	-0.03813
564.248	-0.03815
564.586	-0.03815
564.925	-0.03818
565.263	-0.03817
565.601	-0.03818
565.939	-0.03818
566.277	-0.0382
566.616	-0.03821
566.954	-0.03822
567.292	-0.03827
567.63	-0.03832
567.967	-0.03832
568.305	-0.03834
568.643	-0.03836
568.981	-0.03844
569.319	-0.03845
569.656	-0.03847
569.994	-0.03852
570.331	-0.0386
570.669	-0.03859
571.006	-0.03866
571.344	-0.0387
571.681	-0.03872
572.019	-0.03873
572.356	-0.03874
572.693	-0.03874
573.03	-0.03879
573.368	-0.03878
573.705	-0.03881
574.042	-0.03885
574.379	-0.03886
574.716	-0.03887
575.053	-0.03889
575.39	-0.03892
575.727	-0.03895
576.063	-0.03892
576.4	-0.03892
576.737	-0.03891
577.074	-0.03891
577.41	-0.0389
577.747	-0.03892
578.083	-0.03889
578.42	-0.03888
578.756	-0.03893
579.093	-0.03894
579.429	-0.03896
579.766	-0.03902
580.102	-0.03901
580.438	-0.03907
580.774	-0.03904
581.11	-0.03904
581.446	-0.03904
581.782	-0.03905
582.119	-0.03909
582.454	-0.03907
582.79	-0.03907
583.126	-0.03911
583.462	-0.03913
583.798	-0.03917
584.134	-0.03918
584.469	-0.03917
584.805	-0.03917
585.141	-0.0392
585.476	-0.0392
585.812	-0.03921
586.147	-0.03921
586.482	-0.0392
586.818	-0.03918
587.153	-0.03922
587.488	-0.03922
587.824	-0.03927
588.159	-0.03927
588.494	-0.03928
588.829	-0.03928
589.164	-0.03928
589.499	-0.0393
589.834	-0.03932
590.169	-0.03929
590.504	-0.03928
590.839	-0.0393
591.174	-0.0393
591.508	-0.03933
591.843	-0.03932
592.178	-0.03932
592.512	-0.03932
592.847	-0.03928
593.181	-0.03925
593.516	-0.03924
593.85	-0.03923
594.185	-0.03917
594.519	-0.03914
594.853	-0.03909
595.187	-0.0391
595.522	-0.03909
595.856	-0.03908
596.19	-0.03903
596.524	-0.03899
596.858	-0.03894
597.192	-0.03891
597.526	-0.03891
597.86	-0.03889
598.194	-0.03886
598.527	-0.03885
598.861	-0.03886
599.195	-0.03882
599.528	-0.0388
599.862	-0.03879
600.196	-0.03878
600.529	-0.03879
600.863	-0.0388
601.196	-0.0388
601.529	-0.03877
601.863	-0.03874
602.196	-0.0387
602.529	-0.03867
602.862	-0.03866
603.196	-0.03866
603.529	-0.0387
603.862	-0.03874
604.195	-0.03879
604.528	-0.03879
604.861	-0.0388
605.193	-0.03883
605.526	-0.03881
605.859	-0.03881
606.192	-0.03884
606.524	-0.03886
606.857	-0.03888
607.19	-0.03888
607.522	-0.03887
607.855	-0.03884
608.187	-0.03883
608.52	-0.03884
608.852	-0.03885
609.184	-0.03884
609.517	-0.03879
609.849	-0.03878
610.181	-0.03877
610.513	-0.03873
610.845	-0.03865
611.177	-0.03857
611.509	-0.03853
611.841	-0.03852
612.173	-0.03853
612.505	-0.03854
612.837	-0.0385
613.169	-0.03848
613.5	-0.03846
613.832	-0.0384
614.164	-0.03837
614.495	-0.03833
614.827	-0.03828
615.158	-0.03825
615.49	-0.03817
615.821	-0.03816
616.152	-0.03814
616.484	-0.0382
616.815	-0.03818
617.146	-0.03819
617.477	-0.03817
617.808	-0.03821
618.14	-0.0382
618.471	-0.03824
618.802	-0.03822
619.133	-0.03816
619.463	-0.03817
619.794	-0.03818
620.125	-0.03818
620.456	-0.0382
620.787	-0.03824
621.117	-0.03822
621.448	-0.03822
621.778	-0.03826
622.109	-0.03825
622.439	-0.03831
622.77	-0.03831
623.1	-0.03832
623.43	-0.03829
623.761	-0.03828
624.091	-0.03825
624.421	-0.03828
624.751	-0.03824
625.081	-0.03822
625.412	-0.03816
625.742	-0.03812
626.072	-0.03807
626.401	-0.03802
626.731	-0.03804
627.061	-0.03803
627.391	-0.03799
627.721	-0.03796
628.05	-0.03801
628.38	-0.038
628.71	-0.03797
629.039	-0.03798
629.369	-0.03793
629.698	-0.03788
630.028	-0.03785
630.357	-0.03782
630.686	-0.03783
631.015	-0.03781
631.345	-0.03779
631.674	-0.0378
632.003	-0.0378
632.332	-0.03783
632.661	-0.03784
632.99	-0.03789
633.319	-0.0379
633.648	-0.03783
633.977	-0.03778
634.306	-0.03776
634.634	-0.03773
634.963	-0.03768
635.292	-0.03768
635.62	-0.03767
635.949	-0.03765
636.277	-0.03763
636.606	-0.03764
636.934	-0.03764
637.263	-0.03765
637.591	-0.0376
637.919	-0.0376
638.248	-0.03757
638.576	-0.03755
638.904	-0.03756
639.232	-0.03755
639.56	-0.03752
639.888	-0.0375
640.216	-0.03751
640.544	-0.03755
640.872	-0.03755
641.2	-0.03756
641.528	-0.03756
641.855	-0.03758
642.183	-0.03757
642.511	-0.0376
642.838	-0.03763
643.166	-0.03763
643.493	-0.03765
643.821	-0.03762
644.148	-0.03762
644.475	-0.03766
644.803	-0.03767
645.13	-0.03768
645.457	-0.03766
645.784	-0.03764
646.112	-0.03762
646.439	-0.03768
646.766	-0.03769
647.093	-0.0377
647.42	-0.03767
647.746	-0.03771
648.073	-0.03769
648.4	-0.03774
648.727	-0.03775
649.053	-0.03778
649.38	-0.03779
649.707	-0.03781
650.033	-0.03787
650.36	-0.03787
650.686	-0.03789
651.013	-0.0379
651.339	-0.03787
651.665	-0.03785
651.992	-0.0378
652.318	-0.03777
652.644	-0.03775
652.97	-0.0377
653.296	-0.03761
653.622	-0.03756
653.948	-0.03751
654.274	-0.03749
654.6	-0.03744
654.926	-0.03744
655.252	-0.03739
655.578	-0.03734
655.903	-0.03732
656.229	-0.03722
656.555	-0.03714
656.88	-0.03707
657.206	-0.03705
657.531	-0.03705
657.857	-0.03702
658.182	-0.03698
658.507	-0.03693
658.833	-0.03694
659.158	-0.03699
659.483	-0.03699
659.808	-0.03703
660.133	-0.03705
660.458	-0.03704
660.783	-0.03703
661.108	-0.037
661.433	-0.03695
661.758	-0.03691
662.083	-0.0369
662.408	-0.03687
662.732	-0.03684
663.057	-0.03683
663.382	-0.03679
663.706	-0.03677
664.031	-0.03669
664.355	-0.03664
664.68	-0.03658
665.004	-0.03654
665.328	-0.03654
665.653	-0.0365
665.977	-0.0364
666.301	-0.03633
666.625	-0.03624
666.949	-0.03616
667.273	-0.03609
667.597	-0.03603
667.921	-0.03595
668.245	-0.0359
668.569	-0.03584
668.893	-0.03575
669.217	-0.0357
669.54	-0.03564
669.864	-0.03561
670.188	-0.03556
670.511	-0.03553
670.835	-0.0355
671.158	-0.03548
671.482	-0.03546
671.805	-0.03542
672.128	-0.03538
672.452	-0.03536
672.775	-0.03535
673.098	-0.03534
673.421	-0.03531
673.744	-0.0353
674.068	-0.03528
674.391	-0.03525
674.714	-0.0352
675.036	-0.03518
675.359	-0.03519
675.682	-0.03515
676.005	-0.03515
676.328	-0.0351
676.65	-0.03507
676.973	-0.03507
677.295	-0.03504
677.618	-0.03502
677.94	-0.03495
678.263	-0.03489
678.585	-0.03482
678.908	-0.03476
679.23	-0.03468
679.552	-0.03461
679.874	-0.03454
680.196	-0.03447
680.519	-0.03439
680.841	-0.03432
681.163	-0.03428
681.485	-0.0343
681.807	-0.03425
682.128	-0.03417
682.45	-0.03413
682.772	-0.03404
683.094	-0.03393
683.415	-0.03386
683.737	-0.03372
684.059	-0.03362
684.38	-0.03351
684.702	-0.03344
685.023	-0.03338
685.344	-0.03337
685.666	-0.0333
685.987	-0.03329
686.308	-0.03326
686.629	-0.03321
686.95	-0.03315
687.272	-0.03309
687.593	-0.03303
687.914	-0.03296
688.235	-0.03285
688.555	-0.0328
688.876	-0.03275
689.197	-0.03274
689.518	-0.03271
689.839	-0.03274
690.159	-0.0327
690.48	-0.0327
690.8	-0.03268
691.121	-0.03264
691.441	-0.03262
691.762	-0.0326
692.082	-0.0325
692.402	-0.03248
692.723	-0.03247
693.043	-0.03243
693.363	-0.0324
693.683	-0.03239
694.003	-0.03239
694.323	-0.03237
694.643	-0.03234
694.963	-0.03232
695.283	-0.03229
695.603	-0.03223
695.923	-0.03217
696.243	-0.03211
696.562	-0.03207
696.882	-0.03205
697.202	-0.03201
697.521	-0.03197
697.841	-0.03197
698.16	-0.03194
698.479	-0.03189
698.799	-0.03188
699.118	-0.03182
699.437	-0.0317
699.757	-0.03169
700.076	-0.03166
700.395	-0.03161
700.714	-0.03154
701.033	-0.03151
701.352	-0.03143
701.671	-0.03136
701.99	-0.03128
702.308	-0.03121
702.627	-0.03113
702.946	-0.03107
703.265	-0.03096
703.583	-0.03085
703.902	-0.03077
704.22	-0.03067
704.539	-0.03056
704.857	-0.03049
705.176	-0.03043
705.494	-0.03037
705.812	-0.0303
706.131	-0.03024
706.449	-0.03016
706.767	-0.03007
707.085	-0.02995
707.403	-0.0299
707.721	-0.02981
708.039	-0.02977
708.357	-0.02972
708.675	-0.02963
708.993	-0.02952
709.31	-0.02946
709.628	-0.02938
709.946	-0.02928
710.263	-0.0292
710.581	-0.02913
710.898	-0.02907
711.216	-0.02901
711.533	-0.02886
711.851	-0.02875
712.168	-0.02864
712.485	-0.02857
712.802	-0.02842
713.12	-0.02829
713.437	-0.02819
713.754	-0.02808
714.071	-0.02797
714.388	-0.02787
714.705	-0.02777
715.022	-0.02766
715.338	-0.02759
715.655	-0.02752
715.972	-0.02736
716.289	-0.02721
716.605	-0.02711
716.922	-0.02701
717.238	-0.02688
717.555	-0.02677
717.871	-0.02664
718.188	-0.02655
718.504	-0.02642
718.82	-0.0263
719.136	-0.02612
719.453	-0.02606
719.769	-0.02595
720.085	-0.02586
720.401	-0.02579
720.717	-0.02568
721.033	-0.02554
721.349	-0.02542
721.665	-0.02531
721.98	-0.0252
722.296	-0.02517
722.612	-0.0251
722.927	-0.02501
723.243	-0.02494
723.559	-0.02479
723.874	-0.02473
724.19	-0.02459
724.505	-0.02447
724.82	-0.02432
725.136	-0.02417
725.451	-0.02402
725.766	-0.02394
726.081	-0.0238
726.396	-0.02364
726.711	-0.02346
727.026	-0.02328
727.341	-0.02314
727.656	-0.02309
727.971	-0.02289
728.286	-0.0228
728.601	-0.02265
728.916	-0.0224
729.23	-0.02229
729.545	-0.02214
729.859	-0.02192
730.174	-0.02183
730.488	-0.0216
730.803	-0.02145
731.117	-0.02128
731.431	-0.02108
731.746	-0.02097
732.06	-0.02084
732.374	-0.02068
732.688	-0.02048
733.002	-0.02029
733.316	-0.02015
733.63	-0.02
733.944	-0.01982
734.258	-0.01957
734.572	-0.01949
734.886	-0.01928
735.199	-0.01917
735.513	-0.01906
735.827	-0.01887
736.14	-0.01876
736.454	-0.0187
736.767	-0.01859
737.081	-0.01858
737.394	-0.01851
737.708	-0.01848
738.021	-0.01852
738.334	-0.01844
738.647	-0.01842
738.96	-0.0184
739.273	-0.01839
739.587	-0.01838
739.9	-0.01836
740.212	-0.01836
740.525	-0.01837
740.838	-0.01841
741.151	-0.01837
741.464	-0.01835
741.776	-0.01832
742.089	-0.01832
742.402	-0.01836
742.714	-0.01838
743.027	-0.01838
743.339	-0.01839
743.651	-0.01829
743.964	-0.01829
744.276	-0.01827
744.588	-0.01822
744.901	-0.01823
745.213	-0.0182
745.525	-0.01816
745.837	-0.01815
746.149	-0.01817
746.461	-0.01817
746.773	-0.01816
747.085	-0.01814
747.396	-0.01814
747.708	-0.01813
748.02	-0.01814
748.331	-0.01814
748.643	-0.01815
748.955	-0.01816
749.266	-0.01812
749.577	-0.01812
749.889	-0.0181
750.2	-0.0182
750.512	-0.01823
750.823	-0.01827
751.134	-0.01828
751.445	-0.01829
751.756	-0.01832
752.067	-0.01834
752.378	-0.01836
752.689	-0.01832
753	-0.01834
753.311	-0.01836
753.622	-0.01836
753.932	-0.01832
754.243	-0.01835
754.554	-0.0184
754.864	-0.01846
755.175	-0.01851
755.485	-0.01847
755.796	-0.01859
756.106	-0.01867
756.417	-0.01871
756.727	-0.01875
757.037	-0.0188
757.347	-0.01883
757.658	-0.0189
757.968	-0.01899
758.278	-0.01902
758.588	-0.0191
758.898	-0.01923
759.208	-0.01933
759.517	-0.01942
759.827	-0.01946
760.137	-0.01954
760.447	-0.01962
760.756	-0.01971
761.066	-0.01983
761.375	-0.01986
761.685	-0.01989
761.994	-0.01997
762.304	-0.01994
762.613	-0.01998
762.922	-0.02001
763.232	-0.01998
763.541	-0.02005
763.85	-0.02003
764.159	-0.02012
764.468	-0.02013
764.777	-0.02013
765.086	-0.02013
765.395	-0.0201
765.704	-0.02018
766.013	-0.02012
766.321	-0.0202
766.63	-0.02016
766.939	-0.02024
767.247	-0.02018
767.556	-0.02012
767.864	-0.02009
768.173	-0.02013
768.481	-0.02018
768.789	-0.02029
769.098	-0.02027
769.406	-0.02032
769.714	-0.02042
770.022	-0.02047
770.33	-0.02064
770.638	-0.0207
770.946	-0.02082
771.254	-0.02098
771.562	-0.02111
771.87	-0.02119
772.178	-0.02125
772.486	-0.02126
772.793	-0.02128
773.101	-0.02141
773.408	-0.02144
773.716	-0.0216
774.023	-0.0216
774.331	-0.02166
774.638	-0.02169
774.946	-0.02172
775.253	-0.02171
775.56	-0.02174
775.867	-0.02182
776.174	-0.02191
776.481	-0.02194
776.788	-0.02198
777.095	-0.02201
777.402	-0.02209
777.709	-0.02212
778.016	-0.02221
778.323	-0.02229
778.63	-0.02238
778.936	-0.02258
779.243	-0.02276
779.549	-0.02283
779.856	-0.02291
780.162	-0.023
780.469	-0.02316
780.775	-0.02331
781.082	-0.02348
781.388	-0.02366
781.694	-0.02381
782	-0.02398
782.306	-0.02406
782.612	-0.02417
782.918	-0.02431
783.224	-0.02439
783.53	-0.02448
783.836	-0.0245
784.142	-0.02452
784.448	-0.02453
784.753	-0.02466
785.059	-0.02472
785.365	-0.02486
785.67	-0.02483
785.976	-0.02492
786.281	-0.02505
786.586	-0.02515
786.892	-0.02523
787.197	-0.02525
787.502	-0.02527
787.808	-0.02534
788.113	-0.02553
788.418	-0.0257
788.723	-0.02585
789.028	-0.02591
789.333	-0.026
789.638	-0.02607
789.942	-0.02616
790.247	-0.0263
790.552	-0.02646
790.857	-0.0266
791.161	-0.02672
791.466	-0.02691
791.77	-0.02703
792.075	-0.02723
792.379	-0.02739
792.684	-0.02752
792.988	-0.0277
793.292	-0.02794
793.597	-0.02821
793.901	-0.02841
794.205	-0.02857
794.509	-0.02863
794.813	-0.02874
795.117	-0.02882
795.421	-0.02899
795.725	-0.02908
796.029	-0.02922
796.332	-0.02937
796.636	-0.02951
796.94	-0.02964
797.243	-0.02983
797.547	-0.02991
797.85	-0.03
798.154	-0.03017
798.457	-0.03031
798.761	-0.03042
799.064	-0.03055
799.367	-0.03062
799.67	-0.03068
799.973	-0.03069
800.277	-0.03087
800.58	-0.03096
800.883	-0.03105
801.186	-0.03106
801.488	-0.03125
801.791	-0.0312
802.094	-0.0313
802.397	-0.0314
802.699	-0.03138
803.002	-0.03142
803.305	-0.03143
803.607	-0.03147
803.91	-0.03159
804.212	-0.03167
804.515	-0.03171
804.817	-0.03179
805.119	-0.03199
805.421	-0.03209
805.724	-0.03228
806.026	-0.03245
806.328	-0.03258
806.63	-0.03262
806.932	-0.03264
807.234	-0.03262
807.535	-0.03271
807.837	-0.03271
808.139	-0.03281
808.441	-0.03279
808.742	-0.03285
809.044	-0.03297
809.346	-0.0331
809.647	-0.03306
809.948	-0.03306
810.25	-0.03315
810.551	-0.03316
810.853	-0.03312
811.154	-0.03326
811.455	-0.03328
811.756	-0.03323
812.057	-0.03314
812.358	-0.03303
812.659	-0.03316
812.96	-0.03309
813.261	-0.03312
813.562	-0.03317
813.863	-0.03318
814.163	-0.03326
814.464	-0.0332
814.765	-0.03323
815.065	-0.03328
815.366	-0.03338
815.666	-0.03343
815.967	-0.0336
816.267	-0.03365
816.567	-0.03371
816.868	-0.0339
817.168	-0.03417
817.468	-0.03408
817.768	-0.03412
818.068	-0.03419
818.368	-0.03427
818.668	-0.03441
818.968	-0.0343
819.268	-0.03439
819.568	-0.03446
819.867	-0.03453
820.167	-0.03459
820.467	-0.03465
820.766	-0.03483
821.066	-0.03515
821.365	-0.03525
821.665	-0.03525
821.964	-0.03509
822.263	-0.03505
822.563	-0.03497
822.862	-0.03491
823.161	-0.03468
823.46	-0.0344
823.759	-0.0344
824.058	-0.03423
824.357	-0.03411
824.656	-0.03397
824.955	-0.03382
825.254	-0.03361
825.552	-0.03349
825.851	-0.03329
826.15	-0.03332
826.448	-0.03319
826.747	-0.03289
827.045	-0.03283
827.344	-0.0323
827.642	-0.03205
827.941	-0.03183
828.239	-0.03183
828.537	-0.03185
828.835	-0.03178
829.133	-0.03169
829.432	-0.0315
829.73	-0.03142
830.028	-0.03144
830.325	-0.03132
830.623	-0.03133
830.921	-0.03119
831.219	-0.03109
831.517	-0.03116
831.814	-0.03101
832.112	-0.0309
832.409	-0.0305
832.707	-0.03018
833.004	-0.0301
833.302	-0.02992
833.599	-0.02989
833.896	-0.02953
834.194	-0.02951
834.491	-0.02923
834.788	-0.02911
835.085	-0.02908
835.382	-0.02895
835.679	-0.02894
835.976	-0.02865
836.273	-0.02822
836.57	-0.02796
836.866	-0.02761
837.163	-0.0275
837.46	-0.02714
837.756	-0.02696
838.053	-0.02674
838.349	-0.0265
838.646	-0.02631
838.942	-0.02619
839.239	-0.02598
839.535	-0.02545
839.831	-0.02515
840.127	-0.02503
840.423	-0.02465
840.72	-0.02469
841.016	-0.02397
841.312	-0.02358
841.607	-0.02318
841.903	-0.0226
842.199	-0.02236
842.495	-0.02198
842.791	-0.02202
843.086	-0.02172
843.382	-0.02118
843.677	-0.02102
843.973	-0.02082
844.268	-0.02019
844.564	-0.02003
844.859	-0.01979
845.154	-0.02015
845.45	-0.02027
845.745	-0.02039
846.04	-0.0201
846.335	-0.02015
846.63	-0.02072
846.925	-0.02006
847.22	-0.02019
847.515	-0.01981
847.81	-0.01914
848.104	-0.01913
848.399	-0.01917
848.694	-0.01876
848.988	-0.01855
849.283	-0.01872
849.578	-0.01865
849.872	-0.01869
850.166	-0.01839
850.461	-0.01884
850.755	-0.01833
851.049	-0.0178
851.343	-0.01708
851.638	-0.0163
851.932	-0.01614
852.226	-0.0163
852.52	-0.01645
852.814	-0.01518
853.107	-0.01539
853.401	-0.01492
853.695	-0.01482
853.989	-0.01482
854.282	-0.01411
854.576	-0.01366
854.869	-0.01325
855.163	-0.01248
855.456	-0.01196
855.75	-0.01158
856.043	-0.01039
856.336	-0.0094
856.63	-0.00866
856.923	-0.00837
857.216	-0.00894
857.509	-0.00844
857.802	-0.00822
858.095	-0.00836
858.388	-0.00785
858.681	-0.00637
858.974	-0.00657
859.266	-0.00571
859.559	-0.00586
859.852	-0.00494
860.144	-0.00497
860.437	-0.00553
860.729	-0.00513
861.022	-0.00519
861.314	-0.00462
861.606	-0.0042
861.899	-0.00387
862.191	-0.00399
862.483	-0.00506
862.775	-0.00542
863.067	-0.00551
863.359	-0.00557
863.651	-0.00619
863.943	-0.00626
864.235	-0.00491
864.527	-0.00482
864.819	-0.00434
865.11	-0.00376
865.402	-0.0034
865.693	-0.00235
865.985	-0.00268
866.276	-0.00359
866.568	-0.00337
866.859	-0.00262
867.151	-0.00314
867.442	-0.00372
867.733	-0.00289
868.024	-0.00286
868.315	-0.00356
868.606	-0.00171
868.897	-0.00098
869.188	-0.00064
869.479	0.00039
869.77	0.00142
870.061	0.0019
870.351	0.00138
870.642	0.00154
870.933	0.00103
871.223	0.00118
871.514	0.00105
871.804	0.00018
872.095	-0.00037
872.385	0.00184
872.675	0.00218
