Data from initial mio_Absorbance_05.txt Node
Date: Thu Jan 12 12:16:25 EST 2023
User: UV-vis
Spectrometer: FLMS04918
Trigger mode: 0
Integration Time (sec): 2.340000E-3
Scans to average: 100
Electric dark correction enabled: true
Nonlinearity correction enabled: false
Boxcar width: 10
XAxis mode: Wavelengths
Number of Pixels in Spectrum: 2048
>>>>>Begin Spectral Data<<<<<
179.23	0.63923
179.611	0.32459
179.992	0.62221
180.373	0.40938
180.754	0.16077
181.134	-0.11674
181.515	-0.09626
181.896	-0.00327
182.276	0.19376
182.657	0.05343
183.038	0.03219
183.418	-0.18547
183.799	-0.46073
184.179	0.07316
184.56	0.00081
184.94	-0.01555
185.32	-0.01423
185.701	-0.01828
186.081	-0.01749
186.461	-0.0179
186.842	-0.0174
187.222	-0.01801
187.602	-0.01995
187.982	-0.02013
188.362	-0.01989
188.742	-0.02104
189.122	-0.02153
189.502	-0.02109
189.882	-0.0206
190.262	-0.02003
190.642	-0.02021
191.022	-0.02132
191.402	-0.02197
191.781	-0.02216
192.161	-0.02323
192.541	-0.0234
192.92	-0.02367
193.3	-0.02361
193.68	-0.02338
194.059	-0.0231
194.439	-0.02354
194.818	-0.02445
195.198	-0.02519
195.577	-0.02529
195.957	-0.02516
196.336	-0.02611
196.715	-0.02562
197.094	-0.02588
197.474	-0.02577
197.853	-0.02633
198.232	-0.02697
198.611	-0.0275
198.99	-0.02706
199.369	-0.02725
199.748	-0.02783
200.127	-0.02725
200.506	-0.02721
200.885	-0.02659
201.264	-0.02619
201.643	-0.02598
202.022	-0.02669
202.401	-0.02658
202.779	-0.02593
203.158	-0.02555
203.537	-0.02522
203.915	-0.02529
204.294	-0.02464
204.673	-0.02524
205.051	-0.02564
205.43	-0.02591
205.808	-0.02619
206.187	-0.02607
206.565	-0.02599
206.943	-0.02618
207.322	-0.02646
207.7	-0.02614
208.078	-0.02594
208.456	-0.02581
208.835	-0.02667
209.213	-0.02747
209.591	-0.02781
209.969	-0.02761
210.347	-0.02741
210.725	-0.02738
211.103	-0.0274
211.481	-0.02751
211.859	-0.02748
212.237	-0.02777
212.614	-0.02763
212.992	-0.02793
213.37	-0.02853
213.748	-0.02764
214.125	-0.02728
214.503	-0.0276
214.881	-0.02706
215.258	-0.02607
215.636	-0.02608
216.013	-0.02611
216.391	-0.02634
216.768	-0.02548
217.145	-0.02571
217.523	-0.02584
217.9	-0.0262
218.277	-0.02647
218.655	-0.02598
219.032	-0.02663
219.409	-0.02613
219.786	-0.02638
220.163	-0.02597
220.54	-0.02649
220.917	-0.02584
221.294	-0.02568
221.671	-0.02614
222.048	-0.02638
222.425	-0.02655
222.802	-0.02712
223.179	-0.02758
223.556	-0.0273
223.932	-0.02759
224.309	-0.0281
224.686	-0.02835
225.062	-0.02789
225.439	-0.02772
225.815	-0.02724
226.192	-0.02764
226.568	-0.02769
226.945	-0.02685
227.321	-0.02737
227.698	-0.02736
228.074	-0.02748
228.45	-0.02682
228.827	-0.02674
229.203	-0.02705
229.579	-0.02689
229.955	-0.02674
230.331	-0.02613
230.707	-0.02569
231.083	-0.02532
231.46	-0.02575
231.835	-0.02564
232.211	-0.02504
232.587	-0.02468
232.963	-0.02466
233.339	-0.02476
233.715	-0.02486
234.091	-0.02482
234.466	-0.02467
234.842	-0.02526
235.218	-0.02551
235.593	-0.02537
235.969	-0.02565
236.344	-0.0257
236.72	-0.0257
237.095	-0.02515
237.471	-0.02516
237.846	-0.02503
238.222	-0.02594
238.597	-0.02611
238.972	-0.02655
239.348	-0.02651
239.723	-0.02685
240.098	-0.02641
240.473	-0.02616
240.848	-0.02594
241.223	-0.02628
241.598	-0.02655
241.973	-0.02571
242.348	-0.02518
242.723	-0.02478
243.098	-0.0243
243.473	-0.02405
243.848	-0.02408
244.223	-0.02404
244.597	-0.02439
244.972	-0.02416
245.347	-0.02438
245.721	-0.02481
246.096	-0.024
246.47	-0.02415
246.845	-0.02413
247.219	-0.02408
247.594	-0.02462
247.968	-0.02535
248.343	-0.02581
248.717	-0.0257
249.091	-0.02578
249.466	-0.02596
249.84	-0.02605
250.214	-0.02699
250.588	-0.02705
250.962	-0.02695
251.336	-0.0278
251.71	-0.02819
252.084	-0.02824
252.458	-0.02843
252.832	-0.02898
253.206	-0.02913
253.58	-0.029
253.954	-0.02907
254.328	-0.02902
254.702	-0.02892
255.075	-0.02885
255.449	-0.02822
255.823	-0.02746
256.196	-0.02757
256.57	-0.02799
256.943	-0.0278
257.317	-0.0274
257.69	-0.02791
258.064	-0.02738
258.437	-0.02736
258.81	-0.02763
259.184	-0.02707
259.557	-0.02722
259.93	-0.02713
260.303	-0.02677
260.677	-0.02646
261.05	-0.02622
261.423	-0.02623
261.796	-0.02656
262.169	-0.02646
262.542	-0.02675
262.915	-0.02713
263.288	-0.02702
263.661	-0.02743
264.033	-0.02732
264.406	-0.02713
264.779	-0.02702
265.152	-0.02691
265.524	-0.02705
265.897	-0.02733
266.27	-0.02731
266.642	-0.02721
267.015	-0.02703
267.387	-0.02617
267.76	-0.02651
268.132	-0.02704
268.504	-0.02704
268.877	-0.02723
269.249	-0.02691
269.621	-0.02641
269.994	-0.0267
270.366	-0.02668
270.738	-0.02647
271.11	-0.02653
271.482	-0.02675
271.854	-0.02661
272.226	-0.02675
272.598	-0.02645
272.97	-0.02678
273.342	-0.0267
273.714	-0.02673
274.086	-0.02676
274.458	-0.02642
274.829	-0.0266
275.201	-0.02734
275.573	-0.0271
275.944	-0.02653
276.316	-0.0268
276.688	-0.02663
277.059	-0.02673
277.431	-0.02708
277.802	-0.02695
278.173	-0.02703
278.545	-0.02708
278.916	-0.02691
279.287	-0.02671
279.659	-0.02696
280.03	-0.02663
280.401	-0.02673
280.772	-0.02637
281.143	-0.0263
281.515	-0.02589
281.886	-0.02601
282.257	-0.02618
282.628	-0.02616
282.998	-0.02582
283.369	-0.02579
283.74	-0.02594
284.111	-0.02554
284.482	-0.02536
284.853	-0.0253
285.223	-0.02511
285.594	-0.02489
285.965	-0.02469
286.335	-0.02482
286.706	-0.02481
287.076	-0.02472
287.447	-0.02489
287.817	-0.02518
288.188	-0.02527
288.558	-0.02563
288.928	-0.02589
289.299	-0.02613
289.669	-0.02653
290.039	-0.0269
290.409	-0.02717
290.779	-0.02736
291.149	-0.02765
291.52	-0.02787
291.89	-0.02813
292.26	-0.02835
292.629	-0.02836
292.999	-0.02841
293.369	-0.02846
293.739	-0.02839
294.109	-0.02822
294.479	-0.02811
294.848	-0.02797
295.218	-0.02769
295.588	-0.02739
295.957	-0.02714
296.327	-0.02675
296.696	-0.02633
297.066	-0.02587
297.435	-0.02534
297.805	-0.02469
298.174	-0.02403
298.544	-0.02338
298.913	-0.02269
299.282	-0.02203
299.651	-0.02135
300.021	-0.0207
300.39	-0.02009
300.759	-0.01949
301.128	-0.01891
301.497	-0.01841
301.866	-0.01795
302.235	-0.01749
302.604	-0.01706
302.973	-0.01664
303.342	-0.01619
303.71	-0.01573
304.079	-0.01529
304.448	-0.01486
304.817	-0.01445
305.185	-0.01384
305.554	-0.01305
305.923	-0.01224
306.291	-0.01148
306.66	-0.01076
307.028	-0.01005
307.397	-0.00938
307.765	-0.00871
308.133	-0.00805
308.502	-0.0074
308.87	-0.00674
309.238	-0.00606
309.606	-0.00538
309.975	-0.00469
310.343	-0.004
310.711	-0.00334
311.079	-0.00271
311.447	-0.0021
311.815	-0.00151
312.183	-0.00095
312.551	-0.00042
312.919	-0.00013
313.286	-0.00024
313.654	-0.00059
314.022	-0.00115
314.39	-0.0018
314.757	-0.00252
315.125	-0.00321
315.492	-0.00386
315.86	-0.00424
316.228	-0.00436
316.595	-0.00436
316.962	-0.00436
317.33	-0.00436
317.697	-0.00436
318.065	-0.00436
318.432	-0.00436
318.799	-0.00436
319.166	-0.00436
319.534	-0.00436
319.901	-0.00436
320.268	-0.00435
320.635	-0.00432
321.002	-0.00414
321.369	-0.00378
321.736	-0.00322
322.103	-0.00257
322.47	-0.00185
322.836	-0.00116
323.203	-0.00052
323.57	-0.00014
323.937	-0.00002
324.303	-0.00002
324.67	-0.00002
325.037	-0.00002
325.403	-0.00002
325.77	-0.00002
326.136	-0.00002
326.503	-0.00002
326.869	-0.00002
327.235	-0.00002
327.602	-0.00002
327.968	-0.00002
328.334	-0.00002
328.7	-0.00002
329.067	-0.00002
329.433	-0.00002
329.799	-0.00002
330.165	-0.00002
330.531	-0.00002
330.897	-0.00002
331.263	-0.00002
331.629	-0.00002
331.995	-0.00002
332.36	-0.00002
332.726	-0.00002
333.092	-0.00002
333.458	-0.00002
333.823	-0.00002
334.189	-0.00002
334.554	-0.00002
334.92	-0.00002
335.286	-0.00002
335.651	-0.00002
336.016	-0.00002
336.382	-0.00002
336.747	-0.00002
337.113	-0.00002
337.478	-0.00002
337.843	-0.00002
338.208	-0.00002
338.573	-0.00002
338.939	-0.00002
339.304	-0.00002
339.669	-0.00002
340.034	-0.00002
340.399	-0.00002
340.764	-0.00002
341.129	-0.00002
341.493	-0.00002
341.858	-0.00002
342.223	-0.00002
342.588	-0.00002
342.952	-0.00002
343.317	-0.00002
343.682	-0.00002
344.046	-0.00002
344.411	-0.00002
344.775	-0.00002
345.14	-0.00002
345.504	-0.00002
345.869	-0.00002
346.233	-0.00002
346.597	-0.00002
346.962	-0.00002
347.326	-0.00002
347.69	-0.00002
348.054	-0.00002
348.418	-0.00002
348.782	-0.00002
349.146	-0.00002
349.51	-0.00002
349.874	-0.00002
350.238	-0.00002
350.602	-0.00002
350.966	-0.00002
351.33	-0.00002
351.693	-0.00002
352.057	-0.00002
352.421	-0.00002
352.784	-0.00002
353.148	-0.00002
353.512	-0.00002
353.875	-0.00002
354.239	-0.00002
354.602	-0.00002
354.966	-0.00003
355.329	-0.0001
355.692	-0.0002
356.056	-0.00041
356.419	-0.00065
356.782	-0.00096
357.145	-0.00134
357.508	-0.00174
357.871	-0.00222
358.234	-0.00277
358.597	-0.00338
358.96	-0.00391
359.323	-0.00452
359.686	-0.00511
360.049	-0.00575
360.412	-0.0063
360.775	-0.00683
361.137	-0.00728
361.5	-0.00766
361.863	-0.00802
362.225	-0.00835
362.588	-0.00862
362.951	-0.00878
363.313	-0.00888
363.675	-0.00883
364.038	-0.00888
364.4	-0.00891
364.763	-0.00896
365.125	-0.00911
365.487	-0.00925
365.849	-0.00945
366.212	-0.00966
366.574	-0.01
366.936	-0.01031
367.298	-0.01064
367.66	-0.01086
368.022	-0.01115
368.384	-0.01142
368.746	-0.01174
369.108	-0.01201
369.469	-0.01231
369.831	-0.01255
370.193	-0.01282
370.555	-0.013
370.916	-0.01325
371.278	-0.01344
371.64	-0.01344
372.001	-0.01352
372.363	-0.01349
372.724	-0.01352
373.086	-0.01345
373.447	-0.01327
373.808	-0.01301
374.17	-0.01263
374.531	-0.01218
374.892	-0.01166
375.253	-0.01118
375.615	-0.01075
375.976	-0.01043
376.337	-0.01037
376.698	-0.01053
377.059	-0.01064
377.42	-0.01101
377.781	-0.01149
378.141	-0.01209
378.502	-0.01259
378.863	-0.01319
379.224	-0.01387
379.585	-0.01445
379.945	-0.01504
380.306	-0.01547
380.666	-0.01592
381.027	-0.01636
381.388	-0.01681
381.748	-0.01731
382.108	-0.01785
382.469	-0.01847
382.829	-0.01904
383.19	-0.01951
383.55	-0.01973
383.91	-0.01954
384.27	-0.01905
384.63	-0.0185
384.991	-0.01784
385.351	-0.01715
385.711	-0.01669
386.071	-0.01633
386.431	-0.01591
386.791	-0.01551
387.15	-0.01516
387.51	-0.01476
387.87	-0.01415
388.23	-0.01342
388.589	-0.01249
388.949	-0.01148
389.309	-0.01048
389.668	-0.00963
390.028	-0.00906
390.387	-0.00869
390.747	-0.00869
391.106	-0.009
391.466	-0.00956
391.825	-0.01036
392.184	-0.01125
392.544	-0.01208
392.903	-0.01294
393.262	-0.01354
393.621	-0.01408
393.98	-0.01465
394.339	-0.01513
394.698	-0.01555
395.057	-0.01603
395.416	-0.01676
395.775	-0.01768
396.134	-0.01888
396.493	-0.02024
396.852	-0.02168
397.211	-0.02296
397.569	-0.02407
397.928	-0.025
398.287	-0.02572
398.645	-0.02624
399.004	-0.02671
399.362	-0.02706
399.721	-0.02746
400.079	-0.02782
400.438	-0.02803
400.796	-0.02825
401.154	-0.02841
401.512	-0.0286
401.871	-0.02877
402.229	-0.02903
402.587	-0.02931
402.945	-0.02959
403.303	-0.02987
403.661	-0.0301
404.019	-0.03028
404.377	-0.03024
404.735	-0.03011
405.093	-0.02986
405.451	-0.02964
405.808	-0.02934
406.166	-0.02907
406.524	-0.02882
406.882	-0.02867
407.239	-0.02854
407.597	-0.02841
407.954	-0.02839
408.312	-0.02837
408.669	-0.02839
409.027	-0.02842
409.384	-0.02851
409.741	-0.02852
410.099	-0.02853
410.456	-0.02848
410.813	-0.02848
411.17	-0.02849
411.527	-0.02855
411.884	-0.02875
412.242	-0.02912
412.599	-0.02954
412.956	-0.02994
413.312	-0.03042
413.669	-0.031
414.026	-0.0316
414.383	-0.03222
414.74	-0.0328
415.096	-0.03341
415.453	-0.03406
415.81	-0.03482
416.166	-0.03567
416.523	-0.03658
416.879	-0.0374
417.236	-0.03823
417.592	-0.03896
417.949	-0.03966
418.305	-0.04044
418.661	-0.04126
419.018	-0.04211
419.374	-0.043
419.73	-0.04387
420.086	-0.04479
420.442	-0.04575
420.798	-0.04663
421.154	-0.04742
421.51	-0.04817
421.866	-0.0488
422.222	-0.0495
422.578	-0.05021
422.934	-0.05089
423.29	-0.05149
423.646	-0.05199
424.001	-0.05249
424.357	-0.05318
424.713	-0.05391
425.068	-0.05484
425.424	-0.05584
425.779	-0.05653
426.135	-0.05709
426.49	-0.0574
426.845	-0.05755
427.201	-0.05759
427.556	-0.05757
427.911	-0.05737
428.266	-0.05727
428.622	-0.05715
428.977	-0.05702
429.332	-0.05686
429.687	-0.05658
430.042	-0.05627
430.397	-0.05591
430.752	-0.05566
431.107	-0.05544
431.461	-0.0553
431.816	-0.05517
432.171	-0.05516
432.526	-0.05512
432.88	-0.0552
433.235	-0.0553
433.59	-0.05544
433.944	-0.05567
434.299	-0.05594
434.653	-0.05621
435.008	-0.05641
435.362	-0.0566
435.716	-0.05672
436.071	-0.05683
436.425	-0.05687
436.779	-0.05699
437.133	-0.05711
437.487	-0.05724
437.841	-0.05745
438.195	-0.05758
438.549	-0.05774
438.903	-0.05784
439.257	-0.05789
439.611	-0.05788
439.965	-0.05791
440.319	-0.05788
440.673	-0.05791
441.026	-0.05789
441.38	-0.05783
441.734	-0.05773
442.087	-0.05764
442.441	-0.05749
442.794	-0.05741
443.148	-0.05728
443.501	-0.0571
443.855	-0.05701
444.208	-0.05689
444.561	-0.05684
444.915	-0.05672
445.268	-0.05667
445.621	-0.05662
445.974	-0.05661
446.327	-0.05661
446.68	-0.05661
447.033	-0.05663
447.386	-0.05665
447.739	-0.0567
448.092	-0.05668
448.445	-0.05673
448.798	-0.05679
449.15	-0.05686
449.503	-0.05689
449.856	-0.05701
450.209	-0.05706
450.561	-0.05716
450.914	-0.05729
451.266	-0.05732
451.619	-0.05745
451.971	-0.05759
452.323	-0.05777
452.676	-0.05787
453.028	-0.05797
453.38	-0.05808
453.733	-0.05815
454.085	-0.05823
454.437	-0.05829
454.789	-0.0584
455.141	-0.05849
455.493	-0.05853
455.845	-0.05864
456.197	-0.05871
456.549	-0.05877
456.901	-0.05885
457.253	-0.05896
457.604	-0.05904
457.956	-0.05909
458.308	-0.05911
458.659	-0.05924
459.011	-0.05925
459.362	-0.05926
459.714	-0.05924
460.065	-0.0593
460.417	-0.05931
460.768	-0.0593
461.12	-0.05942
461.471	-0.05945
461.822	-0.05951
462.173	-0.05956
462.525	-0.05962
462.876	-0.05968
463.227	-0.05967
463.578	-0.05966
463.929	-0.0597
464.28	-0.05974
464.631	-0.05971
464.982	-0.05973
465.332	-0.05975
465.683	-0.05981
466.034	-0.05979
466.385	-0.05986
466.735	-0.05986
467.086	-0.05996
467.437	-0.05995
467.787	-0.06
468.138	-0.06005
468.488	-0.06006
468.839	-0.0601
469.189	-0.06016
469.539	-0.06015
469.89	-0.06013
470.24	-0.06019
470.59	-0.06022
470.94	-0.06027
471.29	-0.06032
471.64	-0.06041
471.99	-0.06047
472.34	-0.06055
472.69	-0.06062
473.04	-0.06065
473.39	-0.06069
473.74	-0.06075
474.09	-0.06085
474.439	-0.06079
474.789	-0.06085
475.139	-0.06094
475.488	-0.06102
475.838	-0.06104
476.188	-0.0611
476.537	-0.06112
476.886	-0.06122
477.236	-0.06129
477.585	-0.06132
477.935	-0.06142
478.284	-0.06148
478.633	-0.06156
478.982	-0.06157
479.331	-0.06163
479.68	-0.06162
480.03	-0.06163
480.379	-0.06162
480.728	-0.06167
481.076	-0.06167
481.425	-0.06169
481.774	-0.06174
482.123	-0.06175
482.472	-0.06173
482.821	-0.06176
483.169	-0.06178
483.518	-0.06184
483.866	-0.06191
484.215	-0.06188
484.563	-0.06191
484.912	-0.06196
485.26	-0.062
485.609	-0.06206
485.957	-0.06211
486.305	-0.06217
486.654	-0.06215
487.002	-0.06219
487.35	-0.06225
487.698	-0.06235
488.046	-0.06242
488.394	-0.06247
488.742	-0.06254
489.09	-0.06264
489.438	-0.0627
489.786	-0.06277
490.134	-0.06285
490.482	-0.06292
490.829	-0.06296
491.177	-0.06297
491.525	-0.06306
491.872	-0.06309
492.22	-0.06317
492.567	-0.06314
492.915	-0.06315
493.262	-0.0632
493.61	-0.06325
493.957	-0.06334
494.304	-0.06338
494.652	-0.06341
494.999	-0.06347
495.346	-0.06348
495.693	-0.06353
496.04	-0.06355
496.387	-0.06357
496.734	-0.06362
497.081	-0.06363
497.428	-0.0636
497.775	-0.06361
498.122	-0.06365
498.469	-0.06368
498.816	-0.06372
499.162	-0.06377
499.509	-0.06377
499.856	-0.06385
500.202	-0.06387
500.549	-0.06382
500.895	-0.0638
501.242	-0.06383
501.588	-0.06385
501.935	-0.06388
502.281	-0.06389
502.627	-0.0639
502.973	-0.06394
503.32	-0.06394
503.666	-0.06395
504.012	-0.06399
504.358	-0.06402
504.704	-0.064
505.05	-0.064
505.396	-0.06399
505.742	-0.06402
506.088	-0.06405
506.433	-0.06409
506.779	-0.06412
507.125	-0.06412
507.471	-0.06413
507.816	-0.06417
508.162	-0.06425
508.507	-0.06423
508.853	-0.06425
509.198	-0.06431
509.544	-0.06435
509.889	-0.06439
510.234	-0.06438
510.58	-0.0644
510.925	-0.06444
511.27	-0.06443
511.615	-0.06444
511.96	-0.06449
512.306	-0.06452
512.651	-0.06455
512.996	-0.06453
513.341	-0.06452
513.685	-0.06452
514.03	-0.06451
514.375	-0.06456
514.72	-0.06456
515.065	-0.06461
515.409	-0.06463
515.754	-0.06466
516.099	-0.06466
516.443	-0.06466
516.788	-0.06464
517.132	-0.06467
517.476	-0.06469
517.821	-0.06473
518.165	-0.06475
518.51	-0.06481
518.854	-0.06481
519.198	-0.06483
519.542	-0.06486
519.886	-0.06488
520.23	-0.06495
520.574	-0.06498
520.918	-0.065
521.262	-0.06505
521.606	-0.06508
521.95	-0.06515
522.294	-0.06514
522.638	-0.06514
522.981	-0.06517
523.325	-0.06517
523.669	-0.06519
524.012	-0.06523
524.356	-0.06525
524.699	-0.0653
525.043	-0.06532
525.386	-0.06533
525.73	-0.06532
526.073	-0.06543
526.416	-0.06548
526.76	-0.06555
527.103	-0.06561
527.446	-0.06564
527.789	-0.06567
528.132	-0.06569
528.475	-0.06568
528.818	-0.06567
529.161	-0.06569
529.504	-0.06574
529.847	-0.06578
530.19	-0.06582
530.532	-0.0659
530.875	-0.06593
531.218	-0.06594
531.56	-0.06598
531.903	-0.06601
532.246	-0.06605
532.588	-0.0661
532.93	-0.06616
533.273	-0.06615
533.615	-0.06622
533.958	-0.06623
534.3	-0.06622
534.642	-0.06626
534.984	-0.06632
535.326	-0.06637
535.669	-0.0664
536.011	-0.06646
536.353	-0.06648
536.695	-0.06653
537.037	-0.06653
537.378	-0.06655
537.72	-0.06657
538.062	-0.06661
538.404	-0.06666
538.746	-0.06668
539.087	-0.06672
539.429	-0.06674
539.77	-0.06677
540.112	-0.0668
540.454	-0.06685
540.795	-0.06685
541.136	-0.06683
541.478	-0.06686
541.819	-0.06689
542.16	-0.06693
542.502	-0.06694
542.843	-0.06702
543.184	-0.06707
543.525	-0.06711
543.866	-0.06713
544.207	-0.06719
544.548	-0.06719
544.889	-0.06721
545.23	-0.06724
545.571	-0.06725
545.911	-0.06731
546.252	-0.0673
546.593	-0.06733
546.934	-0.06737
547.274	-0.06737
547.615	-0.06738
547.955	-0.06741
548.296	-0.06748
548.636	-0.06752
548.977	-0.06752
549.317	-0.06755
549.657	-0.06758
549.997	-0.06757
550.338	-0.06757
550.678	-0.06758
551.018	-0.06757
551.358	-0.06761
551.698	-0.06769
552.038	-0.06774
552.378	-0.06777
552.718	-0.06777
553.058	-0.06773
553.398	-0.06775
553.737	-0.0678
554.077	-0.0678
554.417	-0.06781
554.756	-0.0678
555.096	-0.06781
555.435	-0.06779
555.775	-0.0678
556.114	-0.06781
556.454	-0.06779
556.793	-0.06777
557.133	-0.06776
557.472	-0.06773
557.811	-0.06771
558.15	-0.06773
558.489	-0.06774
558.829	-0.06771
559.168	-0.0677
559.507	-0.06769
559.846	-0.06769
560.184	-0.06769
560.523	-0.06769
560.862	-0.06765
561.201	-0.06764
561.54	-0.06766
561.878	-0.06764
562.217	-0.06761
562.556	-0.06759
562.894	-0.06756
563.233	-0.06751
563.571	-0.06749
563.91	-0.06746
564.248	-0.06745
564.586	-0.06742
564.925	-0.06744
565.263	-0.06743
565.601	-0.0674
565.939	-0.06742
566.277	-0.06744
566.616	-0.06743
566.954	-0.06743
567.292	-0.06743
567.63	-0.06745
567.967	-0.06745
568.305	-0.06742
568.643	-0.06742
568.981	-0.06745
569.319	-0.06744
569.656	-0.06743
569.994	-0.06742
570.331	-0.06745
570.669	-0.06744
571.006	-0.06748
571.344	-0.06751
571.681	-0.0675
572.019	-0.06748
572.356	-0.06743
572.693	-0.06738
573.03	-0.06735
573.368	-0.06727
573.705	-0.06727
574.042	-0.06727
574.379	-0.06726
574.716	-0.06725
575.053	-0.06724
575.39	-0.06726
575.727	-0.06724
576.063	-0.06721
576.4	-0.06719
576.737	-0.06718
577.074	-0.0672
577.41	-0.06717
577.747	-0.06716
578.083	-0.06712
578.42	-0.06711
578.756	-0.06713
579.093	-0.06715
579.429	-0.06718
579.766	-0.06722
580.102	-0.06724
580.438	-0.06729
580.774	-0.06731
581.11	-0.0673
581.446	-0.06729
581.782	-0.06728
582.119	-0.06732
582.454	-0.06731
582.79	-0.06733
583.126	-0.0674
583.462	-0.06746
583.798	-0.06748
584.134	-0.0675
584.469	-0.06755
584.805	-0.06757
585.141	-0.06761
585.476	-0.06761
585.812	-0.06763
586.147	-0.06766
586.482	-0.06766
586.818	-0.06764
587.153	-0.06764
587.488	-0.06763
587.824	-0.06762
588.159	-0.06764
588.494	-0.06768
588.829	-0.0677
589.164	-0.06768
589.499	-0.0677
589.834	-0.06769
590.169	-0.06765
590.504	-0.06758
590.839	-0.0676
591.174	-0.06759
591.508	-0.06757
591.843	-0.06757
592.178	-0.06757
592.512	-0.06757
592.847	-0.06756
593.181	-0.06752
593.516	-0.06753
593.85	-0.06755
594.185	-0.06754
594.519	-0.06751
594.853	-0.06751
595.187	-0.06751
595.522	-0.06751
595.856	-0.06751
596.19	-0.06748
596.524	-0.06747
596.858	-0.06748
597.192	-0.06745
597.526	-0.06747
597.86	-0.06747
598.194	-0.06744
598.527	-0.06741
598.861	-0.06739
599.195	-0.06737
599.528	-0.06736
599.862	-0.06734
600.196	-0.06735
600.529	-0.06735
600.863	-0.06732
601.196	-0.06732
601.529	-0.06733
601.863	-0.06733
602.196	-0.06728
602.529	-0.06727
602.862	-0.06725
603.196	-0.06724
603.529	-0.06722
603.862	-0.06721
604.195	-0.06726
604.528	-0.06727
604.861	-0.06729
605.193	-0.06731
605.526	-0.06734
605.859	-0.06736
606.192	-0.06737
606.524	-0.0674
606.857	-0.06742
607.19	-0.0674
607.522	-0.06739
607.855	-0.06736
608.187	-0.06733
608.52	-0.06734
608.852	-0.06732
609.184	-0.06734
609.517	-0.06729
609.849	-0.06729
610.181	-0.06728
610.513	-0.06725
610.845	-0.06719
611.177	-0.06716
611.509	-0.06712
611.841	-0.06709
612.173	-0.06711
612.505	-0.06708
612.837	-0.06706
613.169	-0.06703
613.5	-0.06701
613.832	-0.06696
614.164	-0.06691
614.495	-0.06688
614.827	-0.06688
615.158	-0.06687
615.49	-0.06681
615.821	-0.0668
616.152	-0.06678
616.484	-0.06678
616.815	-0.06673
617.146	-0.06672
617.477	-0.06674
617.808	-0.06674
618.14	-0.06672
618.471	-0.06673
618.802	-0.0667
619.133	-0.06663
619.463	-0.0666
619.794	-0.06658
620.125	-0.06657
620.456	-0.06656
620.787	-0.06657
621.117	-0.06651
621.448	-0.0665
621.778	-0.06649
622.109	-0.06645
622.439	-0.06649
622.77	-0.06647
623.1	-0.06646
623.43	-0.06643
623.761	-0.06643
624.091	-0.06642
624.421	-0.06638
624.751	-0.06634
625.081	-0.06632
625.412	-0.06626
625.742	-0.06623
626.072	-0.06622
626.401	-0.06622
626.731	-0.06621
627.061	-0.06619
627.391	-0.06616
627.721	-0.06613
628.05	-0.06615
628.38	-0.06612
628.71	-0.06606
629.039	-0.06604
629.369	-0.06594
629.698	-0.06586
630.028	-0.06578
630.357	-0.06573
630.686	-0.06569
631.015	-0.06564
631.345	-0.06559
631.674	-0.06557
632.003	-0.06552
632.332	-0.06549
632.661	-0.06543
632.99	-0.06537
633.319	-0.06528
633.648	-0.06521
633.977	-0.06513
634.306	-0.06505
634.634	-0.06498
634.963	-0.06493
635.292	-0.06489
635.62	-0.06485
635.949	-0.06477
636.277	-0.06472
636.606	-0.06471
636.934	-0.06469
637.263	-0.06465
637.591	-0.06457
637.919	-0.06455
638.248	-0.06449
638.576	-0.06441
638.904	-0.06435
639.232	-0.06432
639.56	-0.06425
639.888	-0.06421
640.216	-0.0642
640.544	-0.06414
640.872	-0.06407
641.2	-0.06401
641.528	-0.06394
641.855	-0.06388
642.183	-0.0638
642.511	-0.06374
642.838	-0.06371
643.166	-0.06364
643.493	-0.06353
643.821	-0.06348
644.148	-0.06341
644.475	-0.06337
644.803	-0.0633
645.13	-0.06329
645.457	-0.06323
645.784	-0.06317
646.112	-0.06307
646.439	-0.06304
646.766	-0.06296
647.093	-0.06288
647.42	-0.06283
647.746	-0.06281
648.073	-0.06275
648.4	-0.06272
648.727	-0.06271
649.053	-0.06269
649.38	-0.06269
649.707	-0.06266
650.033	-0.06268
650.36	-0.06267
650.686	-0.06259
651.013	-0.06254
651.339	-0.06245
651.665	-0.06237
651.992	-0.06221
652.318	-0.0621
652.644	-0.06197
652.97	-0.06183
653.296	-0.06175
653.622	-0.06169
653.948	-0.06162
654.274	-0.06154
654.6	-0.06142
654.926	-0.06135
655.252	-0.06124
655.578	-0.06108
655.903	-0.06099
656.229	-0.0608
656.555	-0.06064
656.88	-0.06047
657.206	-0.06034
657.531	-0.06024
657.857	-0.06009
658.182	-0.05998
658.507	-0.05987
658.833	-0.05983
659.158	-0.05981
659.483	-0.05977
659.808	-0.05974
660.133	-0.05964
660.458	-0.05952
660.783	-0.05938
661.108	-0.05926
661.433	-0.0591
661.758	-0.05896
662.083	-0.05887
662.408	-0.05877
662.732	-0.05864
663.057	-0.05858
663.382	-0.05847
663.706	-0.05842
664.031	-0.05832
664.355	-0.05825
664.68	-0.05816
665.004	-0.05809
665.328	-0.05802
665.653	-0.0579
665.977	-0.05777
666.301	-0.05764
666.625	-0.05753
666.949	-0.05743
667.273	-0.05734
667.597	-0.05728
667.921	-0.05717
668.245	-0.05709
668.569	-0.05702
668.893	-0.0569
669.217	-0.05683
669.54	-0.05674
669.864	-0.05664
670.188	-0.05657
670.511	-0.05649
670.835	-0.05641
671.158	-0.05633
671.482	-0.05627
671.805	-0.05618
672.128	-0.05609
672.452	-0.056
672.775	-0.05589
673.098	-0.05581
673.421	-0.05571
673.744	-0.05562
674.068	-0.05549
674.391	-0.05538
674.714	-0.05528
675.036	-0.05518
675.359	-0.0551
675.682	-0.05503
676.005	-0.05499
676.328	-0.05489
676.65	-0.05479
676.973	-0.0547
677.295	-0.05457
677.618	-0.05447
677.94	-0.05432
678.263	-0.0542
678.585	-0.05406
678.908	-0.05392
679.23	-0.05381
679.552	-0.05372
679.874	-0.05359
680.196	-0.05348
680.519	-0.05334
680.841	-0.05326
681.163	-0.05314
681.485	-0.05306
681.807	-0.053
682.128	-0.05289
682.45	-0.05278
682.772	-0.05261
683.094	-0.05249
683.415	-0.0524
683.737	-0.05227
684.059	-0.05217
684.38	-0.05209
684.702	-0.052
685.023	-0.05187
685.344	-0.05183
685.666	-0.05171
685.987	-0.05167
686.308	-0.0516
686.629	-0.05153
686.95	-0.05145
687.272	-0.05136
687.593	-0.05127
687.914	-0.05121
688.235	-0.05114
688.555	-0.05108
688.876	-0.051
689.197	-0.05095
689.518	-0.05089
689.839	-0.05085
690.159	-0.05075
690.48	-0.05068
690.8	-0.05062
691.121	-0.05047
691.441	-0.05041
691.762	-0.05034
692.082	-0.05018
692.402	-0.05011
692.723	-0.05001
693.043	-0.04993
693.363	-0.04987
693.683	-0.04976
694.003	-0.04972
694.323	-0.04963
694.643	-0.04954
694.963	-0.04944
695.283	-0.0493
695.603	-0.04921
695.923	-0.04913
696.243	-0.04902
696.562	-0.04895
696.882	-0.04888
697.202	-0.04879
697.521	-0.04873
697.841	-0.04871
698.16	-0.04867
698.479	-0.04865
698.799	-0.04864
699.118	-0.04855
699.437	-0.04848
699.757	-0.04846
700.076	-0.04839
700.395	-0.04834
700.714	-0.04823
701.033	-0.04814
701.352	-0.04806
701.671	-0.04794
701.99	-0.04783
702.308	-0.04774
702.627	-0.04763
702.946	-0.04754
703.265	-0.0474
703.583	-0.04727
703.902	-0.04716
704.22	-0.047
704.539	-0.04685
704.857	-0.04667
705.176	-0.04654
705.494	-0.0464
705.812	-0.04631
706.131	-0.0462
706.449	-0.04602
706.767	-0.04596
707.085	-0.04586
707.403	-0.04581
707.721	-0.04574
708.039	-0.04566
708.357	-0.04558
708.675	-0.04552
708.993	-0.04541
709.31	-0.04529
709.628	-0.04515
709.946	-0.04504
710.263	-0.04493
710.581	-0.04483
710.898	-0.04475
711.216	-0.04469
711.533	-0.04459
711.851	-0.04447
712.168	-0.04439
712.485	-0.04425
712.802	-0.04411
713.12	-0.04403
713.437	-0.04385
713.754	-0.04371
714.071	-0.04356
714.388	-0.04345
714.705	-0.0433
715.022	-0.04318
715.338	-0.0431
715.655	-0.043
715.972	-0.04288
716.289	-0.0428
716.605	-0.04272
716.922	-0.04265
717.238	-0.04259
717.555	-0.0425
717.871	-0.04239
718.188	-0.04234
718.504	-0.04225
718.82	-0.04212
719.136	-0.04202
719.453	-0.04195
719.769	-0.04182
720.085	-0.04176
720.401	-0.04167
720.717	-0.0416
721.033	-0.04151
721.349	-0.04144
721.665	-0.04134
721.98	-0.04125
722.296	-0.0412
722.612	-0.04112
722.927	-0.04099
723.243	-0.04087
723.559	-0.04072
723.874	-0.04054
724.19	-0.04037
724.505	-0.04021
724.82	-0.04004
725.136	-0.0399
725.451	-0.03982
725.766	-0.03975
726.081	-0.03963
726.396	-0.0395
726.711	-0.03937
727.026	-0.03924
727.341	-0.03909
727.656	-0.03893
727.971	-0.03878
728.286	-0.03874
728.601	-0.03858
728.916	-0.03836
729.23	-0.03826
729.545	-0.03819
729.859	-0.03808
730.174	-0.03803
730.488	-0.03796
730.803	-0.0379
731.117	-0.03784
731.431	-0.03771
731.746	-0.0376
732.06	-0.03746
732.374	-0.03732
732.688	-0.03718
733.002	-0.03704
733.316	-0.03686
733.63	-0.03671
733.944	-0.03658
734.258	-0.03644
734.572	-0.03635
734.886	-0.03615
735.199	-0.03602
735.513	-0.03599
735.827	-0.03586
736.14	-0.03574
736.454	-0.03569
736.767	-0.03559
737.081	-0.03554
737.394	-0.0355
737.708	-0.03544
738.021	-0.03543
738.334	-0.03538
738.647	-0.03536
738.96	-0.03535
739.273	-0.03536
739.587	-0.03534
739.9	-0.03537
740.212	-0.03541
740.525	-0.03544
740.838	-0.03552
741.151	-0.03549
741.464	-0.03551
741.776	-0.03555
742.089	-0.0355
742.402	-0.03552
742.714	-0.03555
743.027	-0.03555
743.339	-0.03559
743.651	-0.03557
743.964	-0.03558
744.276	-0.03562
744.588	-0.0356
744.901	-0.03564
745.213	-0.03562
745.525	-0.03565
745.837	-0.0356
746.149	-0.03564
746.461	-0.03567
746.773	-0.03564
747.085	-0.03566
747.396	-0.03567
747.708	-0.03569
748.02	-0.03574
748.331	-0.03573
748.643	-0.03579
748.955	-0.03584
749.266	-0.03587
749.577	-0.03592
749.889	-0.03594
750.2	-0.03604
750.512	-0.03609
750.823	-0.03611
751.134	-0.03619
751.445	-0.03626
751.756	-0.03636
752.067	-0.03634
752.378	-0.03644
752.689	-0.03651
753	-0.03656
753.311	-0.03668
753.622	-0.03673
753.932	-0.03679
754.243	-0.03694
754.554	-0.03704
754.864	-0.03718
755.175	-0.03732
755.485	-0.03746
755.796	-0.0376
756.106	-0.0377
756.417	-0.03777
756.727	-0.03785
757.037	-0.03791
757.347	-0.03799
757.658	-0.03812
757.968	-0.03816
758.278	-0.03822
758.588	-0.03839
758.898	-0.03856
759.208	-0.0387
759.517	-0.03884
759.827	-0.03893
760.137	-0.03904
760.447	-0.03915
760.756	-0.03926
761.066	-0.03933
761.375	-0.0394
761.685	-0.03944
761.994	-0.03948
762.304	-0.03955
762.613	-0.03965
762.922	-0.03975
763.232	-0.03984
763.541	-0.03998
763.85	-0.04007
764.159	-0.0402
764.468	-0.04037
764.777	-0.04049
765.086	-0.04055
765.395	-0.04061
765.704	-0.04063
766.013	-0.04064
766.321	-0.04079
766.63	-0.04083
766.939	-0.04091
767.247	-0.04089
767.556	-0.04093
767.864	-0.04098
768.173	-0.04117
768.481	-0.04128
768.789	-0.04137
769.098	-0.04139
769.406	-0.04149
769.714	-0.04165
770.022	-0.04178
770.33	-0.04202
770.638	-0.04216
770.946	-0.04231
771.254	-0.04248
771.562	-0.04269
771.87	-0.0428
772.178	-0.04296
772.486	-0.04312
772.793	-0.04319
773.101	-0.04342
773.408	-0.04359
773.716	-0.04384
774.023	-0.044
774.331	-0.04416
774.638	-0.04434
774.946	-0.04448
775.253	-0.04461
775.56	-0.04483
775.867	-0.04504
776.174	-0.04515
776.481	-0.04529
776.788	-0.04536
777.095	-0.04546
777.402	-0.04563
777.709	-0.04576
778.016	-0.04592
778.323	-0.04614
778.63	-0.04635
778.936	-0.04659
779.243	-0.04679
779.549	-0.04689
779.856	-0.047
780.162	-0.04712
780.469	-0.04733
780.775	-0.04763
781.082	-0.04775
781.388	-0.04793
781.694	-0.04819
782	-0.04838
782.306	-0.04856
782.612	-0.04878
782.918	-0.04897
783.224	-0.0492
783.53	-0.0494
783.836	-0.04952
784.142	-0.04971
784.448	-0.04984
784.753	-0.05001
785.059	-0.05023
785.365	-0.05045
785.67	-0.05062
785.976	-0.05087
786.281	-0.05121
786.586	-0.05148
786.892	-0.0517
787.197	-0.05185
787.502	-0.05199
787.808	-0.05224
788.113	-0.05244
788.418	-0.05269
788.723	-0.05291
789.028	-0.05308
789.333	-0.05337
789.638	-0.05355
789.942	-0.05374
790.247	-0.05401
790.552	-0.05422
790.857	-0.05443
791.161	-0.05471
791.466	-0.05497
791.77	-0.05525
792.075	-0.0556
792.379	-0.05583
792.684	-0.05605
792.988	-0.05634
793.292	-0.05668
793.597	-0.05701
793.901	-0.05736
794.205	-0.05758
794.509	-0.05785
794.813	-0.0581
795.117	-0.05837
795.421	-0.05866
795.725	-0.05872
796.029	-0.05889
796.332	-0.05917
796.636	-0.05945
796.94	-0.05969
797.243	-0.05997
797.547	-0.06022
797.85	-0.06043
798.154	-0.06072
798.457	-0.06095
798.761	-0.0612
799.064	-0.06147
799.367	-0.0616
799.67	-0.06173
799.973	-0.06189
800.277	-0.06213
800.58	-0.06238
800.883	-0.06253
801.186	-0.06272
801.488	-0.06292
801.791	-0.06304
802.094	-0.06341
802.397	-0.06373
802.699	-0.06378
803.002	-0.06381
803.305	-0.06399
803.607	-0.06427
803.91	-0.06443
804.212	-0.06468
804.515	-0.0648
804.817	-0.0649
805.119	-0.06517
805.421	-0.06533
805.724	-0.06568
806.026	-0.06595
806.328	-0.06618
806.63	-0.06641
806.932	-0.06676
807.234	-0.06711
807.535	-0.06736
807.837	-0.06767
808.139	-0.06798
808.441	-0.06812
808.742	-0.0683
809.044	-0.06864
809.346	-0.069
809.647	-0.06918
809.948	-0.06923
810.25	-0.0695
810.551	-0.06961
810.853	-0.06971
811.154	-0.07009
811.455	-0.07033
811.756	-0.07051
812.057	-0.07062
812.358	-0.07087
812.659	-0.07109
812.96	-0.07127
813.261	-0.07136
813.562	-0.07141
813.863	-0.07171
814.163	-0.0719
814.464	-0.07204
814.765	-0.07229
815.065	-0.07264
815.366	-0.07302
815.666	-0.07339
815.967	-0.0738
816.267	-0.07413
816.567	-0.07435
816.868	-0.07485
817.168	-0.0753
817.468	-0.07548
817.768	-0.07582
818.068	-0.0761
818.368	-0.07641
818.668	-0.07652
818.968	-0.07679
819.268	-0.07699
819.568	-0.07732
819.867	-0.07768
820.167	-0.07788
820.467	-0.07815
820.766	-0.07845
821.066	-0.07894
821.365	-0.07917
821.665	-0.07919
821.964	-0.07929
822.263	-0.0793
822.563	-0.07949
822.862	-0.07955
823.161	-0.07935
823.46	-0.07938
823.759	-0.07962
824.058	-0.07953
824.357	-0.07964
824.656	-0.07965
824.955	-0.07991
825.254	-0.07987
825.552	-0.07993
825.851	-0.07987
826.15	-0.08003
826.448	-0.08008
826.747	-0.07983
827.045	-0.07986
827.344	-0.07963
827.642	-0.07947
827.941	-0.07947
828.239	-0.07936
828.537	-0.07948
828.835	-0.07955
829.133	-0.07972
829.432	-0.07987
829.73	-0.07987
830.028	-0.07978
830.325	-0.07978
830.623	-0.07978
830.921	-0.07966
831.219	-0.07946
831.517	-0.07953
831.814	-0.0796
832.112	-0.0795
832.409	-0.07918
832.707	-0.07902
833.004	-0.07905
833.302	-0.07895
833.599	-0.07883
833.896	-0.07856
834.194	-0.07864
834.491	-0.07851
834.788	-0.07836
835.085	-0.07809
835.382	-0.0781
835.679	-0.07793
835.976	-0.07771
836.273	-0.07752
836.57	-0.07716
836.866	-0.07683
837.163	-0.07681
837.46	-0.07689
837.756	-0.07672
838.053	-0.07626
838.349	-0.07593
838.646	-0.07582
838.942	-0.07561
839.239	-0.07542
839.535	-0.07486
839.831	-0.07457
840.127	-0.07422
840.423	-0.07374
840.72	-0.07373
841.016	-0.0731
841.312	-0.07269
841.607	-0.07193
841.903	-0.07148
842.199	-0.07095
842.495	-0.07017
842.791	-0.07018
843.086	-0.06998
843.382	-0.06931
843.677	-0.06837
843.973	-0.06757
844.268	-0.06684
844.564	-0.0666
844.859	-0.06566
845.154	-0.06513
845.45	-0.06468
845.745	-0.06442
846.04	-0.06363
846.335	-0.06339
846.63	-0.06329
846.925	-0.0622
847.22	-0.06162
847.515	-0.06095
847.81	-0.05989
848.104	-0.05875
848.399	-0.05806
848.694	-0.05749
848.988	-0.05645
849.283	-0.05535
849.578	-0.05426
849.872	-0.05333
850.166	-0.05286
850.461	-0.05222
850.755	-0.0504
851.049	-0.04973
851.343	-0.04853
851.638	-0.04702
851.932	-0.04616
852.226	-0.04493
852.52	-0.04367
852.814	-0.04145
853.107	-0.04045
853.401	-0.03933
853.695	-0.03781
853.989	-0.03744
854.282	-0.03567
854.576	-0.03494
854.869	-0.03327
855.163	-0.03144
855.456	-0.03067
855.75	-0.02903
856.043	-0.02714
856.336	-0.0254
856.63	-0.02327
856.923	-0.02253
857.216	-0.02131
857.509	-0.01969
857.802	-0.01912
858.095	-0.01816
858.388	-0.0164
858.681	-0.01456
858.974	-0.01324
859.266	-0.01206
859.559	-0.01147
859.852	-0.01089
860.144	-0.00903
860.437	-0.00936
860.729	-0.00795
861.022	-0.00822
861.314	-0.00783
861.606	-0.00615
861.899	-0.00621
862.191	-0.0059
862.483	-0.00558
862.775	-0.00593
863.067	-0.00625
863.359	-0.00594
863.651	-0.00598
863.943	-0.00567
864.235	-0.00557
864.527	-0.00548
864.819	-0.00565
865.11	-0.00596
865.402	-0.00446
865.693	-0.00388
865.985	-0.00332
866.276	-0.00333
866.568	-0.00291
866.859	-0.00162
867.151	-0.00035
867.442	-0.00076
867.733	-0.00098
868.024	-0.00044
868.315	-0.00083
868.606	0.00031
868.897	0.00094
869.188	0.00123
869.479	0.00101
869.77	0.00064
870.061	0.00144
870.351	0.00187
870.642	0.00134
870.933	0.00124
871.223	0.00178
871.514	0.00063
871.804	0.00059
872.095	0.0007
872.385	0.00063
872.675	0.0006
