Data from initial mio_Absorbance_01.txt Node
Date: Thu Jan 12 12:08:52 EST 2023
User: UV-vis
Spectrometer: FLMS04918
Trigger mode: 0
Integration Time (sec): 2.340000E-3
Scans to average: 100
Electric dark correction enabled: true
Nonlinearity correction enabled: false
Boxcar width: 10
XAxis mode: Wavelengths
Number of Pixels in Spectrum: 2048
>>>>>Begin Spectral Data<<<<<
179.23	0.51586
179.611	0.70654
179.992	0.86355
180.373	0.61893
180.754	0.80705
181.134	-0
181.515	0.3823
181.896	0.50428
182.276	0.58504
182.657	0.31907
183.038	0.1774
183.418	-0.17941
183.799	-0.38687
184.179	0.34567
184.56	0.20615
184.94	0.18932
185.32	0.19175
185.701	0.18752
186.081	0.18746
186.461	0.1854
186.842	0.18634
187.222	0.18441
187.602	0.18448
187.982	0.18298
188.362	0.18409
188.742	0.18389
189.122	0.18438
189.502	0.1832
189.882	0.18324
190.262	0.18306
190.642	0.18218
191.022	0.18108
191.402	0.17963
191.781	0.17933
192.161	0.17803
192.541	0.17795
192.92	0.17844
193.3	0.17802
193.68	0.17858
194.059	0.17919
194.439	0.17943
194.818	0.17892
195.198	0.17929
195.577	0.17878
195.957	0.18
196.336	0.17829
196.715	0.17894
197.094	0.17838
197.474	0.17874
197.853	0.17859
198.232	0.17854
198.611	0.17833
198.99	0.1788
199.369	0.17893
199.748	0.1794
200.127	0.17995
200.506	0.18128
200.885	0.18097
201.264	0.18099
201.643	0.18024
202.022	0.18
202.401	0.18041
202.779	0.18137
203.158	0.18134
203.537	0.18264
203.915	0.18161
204.294	0.18228
204.673	0.18145
205.051	0.18209
205.43	0.18274
205.808	0.18257
206.187	0.1831
206.565	0.18376
206.943	0.18351
207.322	0.18363
207.7	0.18331
208.078	0.18264
208.456	0.1816
208.835	0.18161
209.213	0.18145
209.591	0.1816
209.969	0.18152
210.347	0.18119
210.725	0.18102
211.103	0.18073
211.481	0.18012
211.859	0.18118
212.237	0.18111
212.614	0.18189
212.992	0.18139
213.37	0.18031
213.748	0.18154
214.125	0.18205
214.503	0.18212
214.881	0.18243
215.258	0.18388
215.636	0.18446
216.013	0.18476
216.391	0.18552
216.768	0.18583
217.145	0.18622
217.523	0.1869
217.9	0.18672
218.277	0.18678
218.655	0.18697
219.032	0.18753
219.409	0.18789
219.786	0.188
220.163	0.18832
220.54	0.18755
220.917	0.18855
221.294	0.18928
221.671	0.18834
222.048	0.18759
222.425	0.18703
222.802	0.18698
223.179	0.1858
223.556	0.18632
223.932	0.18685
224.309	0.18628
224.686	0.18672
225.062	0.18744
225.439	0.18652
225.815	0.18701
226.192	0.18715
226.568	0.18794
226.945	0.18855
227.321	0.18784
227.698	0.18793
228.074	0.18848
228.45	0.1893
228.827	0.18914
229.203	0.18894
229.579	0.19005
229.955	0.1908
230.331	0.19186
230.707	0.19338
231.083	0.19419
231.46	0.19331
231.835	0.19459
232.211	0.19562
232.587	0.19593
232.963	0.19546
233.339	0.19678
233.715	0.19772
234.091	0.19789
234.466	0.19752
234.842	0.19764
235.218	0.19774
235.593	0.19769
235.969	0.19785
236.344	0.19864
236.72	0.19826
237.095	0.19883
237.471	0.19848
237.846	0.19898
238.222	0.1985
238.597	0.1979
238.972	0.19743
239.348	0.19788
239.723	0.19705
240.098	0.19732
240.473	0.19758
240.848	0.19785
241.223	0.1975
241.598	0.19668
241.973	0.19789
242.348	0.19847
242.723	0.19852
243.098	0.20087
243.473	0.20121
243.848	0.20195
244.223	0.20219
244.597	0.20271
244.972	0.2036
245.347	0.20462
245.721	0.20453
246.096	0.20512
246.47	0.20543
246.845	0.20631
247.219	0.20656
247.594	0.20611
247.968	0.20553
248.343	0.20562
248.717	0.20579
249.091	0.20603
249.466	0.20659
249.84	0.20623
250.214	0.20599
250.588	0.20581
250.962	0.20506
251.336	0.20508
251.71	0.20509
252.084	0.20466
252.458	0.20509
252.832	0.2045
253.206	0.20416
253.58	0.20415
253.954	0.20463
254.328	0.2054
254.702	0.20589
255.075	0.20664
255.449	0.20757
255.823	0.20922
256.196	0.21007
256.57	0.21081
256.943	0.21143
257.317	0.21193
257.69	0.2125
258.064	0.21402
258.437	0.21545
258.81	0.21629
259.184	0.21737
259.557	0.21826
259.93	0.21925
260.303	0.22001
260.677	0.22121
261.05	0.22197
261.423	0.22328
261.796	0.22387
262.169	0.22442
262.542	0.22527
262.915	0.22615
263.288	0.22719
263.661	0.22788
264.033	0.22827
264.406	0.22965
264.779	0.2304
265.152	0.23098
265.524	0.23199
265.897	0.23216
266.27	0.232
266.642	0.2327
267.015	0.23304
267.387	0.23355
267.76	0.23408
268.132	0.2342
268.504	0.23416
268.877	0.23432
269.249	0.23469
269.621	0.23542
269.994	0.2356
270.366	0.23574
270.738	0.2361
271.11	0.23691
271.482	0.23723
271.854	0.23785
272.226	0.23768
272.598	0.23822
272.97	0.23906
273.342	0.23938
273.714	0.23915
274.086	0.2404
274.458	0.24106
274.829	0.24177
275.201	0.24219
275.573	0.24276
275.944	0.24403
276.316	0.24474
276.688	0.24644
277.059	0.24724
277.431	0.24854
277.802	0.25064
278.173	0.25236
278.545	0.25412
278.916	0.25659
279.287	0.26022
279.659	0.26439
280.03	0.27069
280.401	0.27804
280.772	0.28766
281.143	0.30001
281.515	0.31693
281.886	0.33678
282.257	0.36131
282.628	0.39078
282.998	0.42523
283.369	0.46501
283.74	0.50808
284.111	0.55347
284.482	0.60017
284.853	0.64741
285.223	0.69333
285.594	0.73678
285.965	0.7768
286.335	0.81369
286.706	0.84617
287.076	0.87358
287.447	0.89615
287.817	0.91442
288.188	0.93028
288.558	0.94406
288.928	0.9561
289.299	0.96763
289.669	0.97781
290.039	0.98647
290.409	0.992
290.779	0.9931
291.149	0.98812
291.52	0.97767
291.89	0.96145
292.26	0.93974
292.629	0.91437
292.999	0.88671
293.369	0.85745
293.739	0.82793
294.109	0.79873
294.479	0.77008
294.848	0.74262
295.218	0.71651
295.588	0.6917
295.957	0.66812
296.327	0.64572
296.696	0.62413
297.066	0.60299
297.435	0.58269
297.805	0.56246
298.174	0.54275
298.544	0.52352
298.913	0.50457
299.282	0.4864
299.651	0.46884
300.021	0.45191
300.39	0.43568
300.759	0.42043
301.128	0.40628
301.497	0.39307
301.866	0.38082
302.235	0.36939
302.604	0.35865
302.973	0.34847
303.342	0.33862
303.71	0.32903
304.079	0.31972
304.448	0.3105
304.817	0.30154
305.185	0.2927
305.554	0.284
305.923	0.27552
306.291	0.26708
306.66	0.25922
307.028	0.25204
307.397	0.24467
307.765	0.23797
308.133	0.23131
308.502	0.22529
308.87	0.21917
309.238	0.21345
309.606	0.20825
309.975	0.20335
310.343	0.19869
310.711	0.19456
311.079	0.19077
311.447	0.18705
311.815	0.18383
312.183	0.18127
312.551	0.17918
312.919	0.17753
313.286	0.17647
313.654	0.17596
314.022	0.17616
314.39	0.17647
314.757	0.17675
315.125	0.17753
315.492	0.17817
315.86	0.17887
316.228	0.17901
316.595	0.17912
316.962	0.1784
317.33	0.17696
317.697	0.17502
318.065	0.17261
318.432	0.16938
318.799	0.166
319.166	0.16279
319.534	0.15957
319.901	0.15652
320.268	0.154
320.635	0.15169
321.002	0.1493
321.369	0.1469
321.736	0.14426
322.103	0.14162
322.47	0.13882
322.836	0.13612
323.203	0.13328
323.57	0.13046
323.937	0.12776
324.303	0.12517
324.67	0.12314
325.037	0.12132
325.403	0.12004
325.77	0.11896
326.136	0.1183
326.503	0.11773
326.869	0.11719
327.235	0.11662
327.602	0.11561
327.968	0.11422
328.334	0.11252
328.7	0.11078
329.067	0.10897
329.433	0.1072
329.799	0.10539
330.165	0.10392
330.531	0.10251
330.897	0.10131
331.263	0.10063
331.629	0.10001
331.995	0.09975
332.36	0.09976
332.726	0.09992
333.092	0.10015
333.458	0.10075
333.823	0.1012
334.189	0.10195
334.554	0.10266
334.92	0.10334
335.286	0.10429
335.651	0.10522
336.016	0.10631
336.382	0.10742
336.747	0.10849
337.113	0.10955
337.478	0.11067
337.843	0.1118
338.208	0.11295
338.573	0.11417
338.939	0.11546
339.304	0.11694
339.669	0.11844
340.034	0.11974
340.399	0.12149
340.764	0.12298
341.129	0.12465
341.493	0.12656
341.858	0.12832
342.223	0.13051
342.588	0.13266
342.952	0.13483
343.317	0.13695
343.682	0.13891
344.046	0.14091
344.411	0.14317
344.775	0.14543
345.14	0.14771
345.504	0.14996
345.869	0.15204
346.233	0.15401
346.597	0.15554
346.962	0.15707
347.326	0.15849
347.69	0.15983
348.054	0.16061
348.418	0.16156
348.782	0.16213
349.146	0.16276
349.51	0.16329
349.874	0.16368
350.238	0.16427
350.602	0.16469
350.966	0.16517
351.33	0.16584
351.693	0.16641
352.057	0.16683
352.421	0.16751
352.784	0.16851
353.148	0.16933
353.512	0.17045
353.875	0.17161
354.239	0.17305
354.602	0.17451
354.966	0.17606
355.329	0.17797
355.692	0.18012
356.056	0.18236
356.419	0.1848
356.782	0.18731
357.145	0.18996
357.508	0.19255
357.871	0.19508
358.234	0.1977
358.597	0.20026
358.96	0.20278
359.323	0.20543
359.686	0.20805
360.049	0.21061
360.412	0.21281
360.775	0.21515
361.137	0.21726
361.5	0.21939
361.863	0.2213
362.225	0.22315
362.588	0.22486
362.951	0.22633
363.313	0.22775
363.675	0.22898
364.038	0.2303
364.4	0.2316
364.763	0.23295
365.125	0.23437
365.487	0.23579
365.849	0.23723
366.212	0.23874
366.574	0.24038
366.936	0.24207
367.298	0.24383
367.66	0.24544
368.022	0.2471
368.384	0.24868
368.746	0.2504
369.108	0.25208
369.469	0.25383
369.831	0.25553
370.193	0.25725
370.555	0.25892
370.916	0.26064
371.278	0.26236
371.64	0.26381
372.001	0.26535
372.363	0.26674
372.724	0.2682
373.086	0.26955
373.447	0.27075
373.808	0.27186
374.17	0.27281
374.531	0.27362
374.892	0.27434
375.253	0.27518
375.615	0.27609
375.976	0.27715
376.337	0.27841
376.698	0.27992
377.059	0.28141
377.42	0.28316
377.781	0.28514
378.141	0.28733
378.502	0.28928
378.863	0.29133
379.224	0.29364
379.585	0.29577
379.945	0.29789
380.306	0.29993
380.666	0.30195
381.027	0.30401
381.388	0.30601
381.748	0.30816
382.108	0.31018
382.469	0.31233
382.829	0.31437
383.19	0.31633
383.55	0.31802
383.91	0.31924
384.27	0.3201
384.63	0.32084
384.991	0.32147
385.351	0.32191
385.711	0.32254
386.071	0.32347
386.431	0.32434
386.791	0.32503
387.15	0.3258
387.51	0.32659
387.87	0.32703
388.23	0.32732
388.589	0.32735
388.949	0.327
389.309	0.32689
389.668	0.32716
390.028	0.32767
390.387	0.32849
390.747	0.32962
391.106	0.33108
391.466	0.33298
391.825	0.3353
392.184	0.3378
392.544	0.34024
392.903	0.3429
393.262	0.34508
393.621	0.34723
393.98	0.34933
394.339	0.35129
394.698	0.35315
395.057	0.3551
395.416	0.35749
395.775	0.36032
396.134	0.36358
396.493	0.36749
396.852	0.37125
397.211	0.37484
397.569	0.37818
397.928	0.38133
398.287	0.38424
398.645	0.38695
399.004	0.38943
399.362	0.39165
399.721	0.39381
400.079	0.39587
400.438	0.3976
400.796	0.39947
401.154	0.40115
401.512	0.40303
401.871	0.40487
402.229	0.40695
402.587	0.40898
402.945	0.41089
403.303	0.41253
403.661	0.41396
404.019	0.41525
404.377	0.41617
404.735	0.41678
405.093	0.4171
405.451	0.41753
405.808	0.41782
406.166	0.41807
406.524	0.4183
406.882	0.41864
407.239	0.41899
407.597	0.41938
407.954	0.41982
408.312	0.42034
408.669	0.42097
409.027	0.4215
409.384	0.42228
409.741	0.42292
410.099	0.42351
410.456	0.42392
410.813	0.42443
411.17	0.42499
411.527	0.42562
411.884	0.42636
412.242	0.42751
412.599	0.42875
412.956	0.42989
413.312	0.43116
413.669	0.43253
414.026	0.43379
414.383	0.435
414.74	0.43626
415.096	0.43746
415.453	0.43873
415.81	0.44009
416.166	0.4415
416.523	0.44307
416.879	0.44456
417.236	0.44605
417.592	0.44745
417.949	0.44889
418.305	0.45012
418.661	0.45124
419.018	0.45224
419.374	0.45324
419.73	0.45407
420.086	0.4549
420.442	0.45566
420.798	0.45628
421.154	0.45682
421.51	0.45733
421.866	0.45773
422.222	0.45801
422.578	0.4584
422.934	0.45865
423.29	0.45883
423.646	0.45904
424.001	0.45918
424.357	0.4593
424.713	0.45943
425.068	0.45959
425.424	0.45974
425.779	0.45967
426.135	0.45966
426.49	0.45964
426.845	0.45958
427.201	0.4595
427.556	0.45932
427.911	0.45913
428.266	0.45886
428.622	0.45853
428.977	0.4582
429.332	0.45803
429.687	0.45786
430.042	0.45763
430.397	0.4575
430.752	0.45728
431.107	0.45712
431.461	0.45703
431.816	0.45693
432.171	0.45674
432.526	0.45663
432.88	0.45617
433.235	0.4559
433.59	0.45555
433.944	0.45499
434.299	0.45442
434.653	0.4538
435.008	0.45323
435.362	0.45266
435.716	0.4521
436.071	0.45153
436.425	0.45108
436.779	0.45039
437.133	0.44967
437.487	0.44891
437.841	0.44803
438.195	0.4472
438.549	0.44631
438.903	0.44532
439.257	0.44432
439.611	0.44331
439.965	0.44231
440.319	0.44145
440.673	0.44047
441.026	0.43939
441.38	0.4384
441.734	0.43742
442.087	0.43655
442.441	0.43569
442.794	0.4348
443.148	0.43393
443.501	0.43306
443.855	0.43201
444.208	0.43116
444.561	0.43022
444.915	0.42923
445.268	0.42832
445.621	0.42728
445.974	0.4263
446.327	0.42531
446.68	0.42437
447.033	0.42336
447.386	0.42225
447.739	0.42111
448.092	0.42001
448.445	0.41896
448.798	0.41781
449.15	0.41659
449.503	0.41534
449.856	0.414
450.209	0.41257
450.561	0.41115
450.914	0.40975
451.266	0.40837
451.619	0.40685
451.971	0.40525
452.323	0.40369
452.676	0.40209
453.028	0.40053
453.38	0.39881
453.733	0.39705
454.085	0.3953
454.437	0.3935
454.789	0.39172
455.141	0.38996
455.493	0.38816
455.845	0.38626
456.197	0.38438
456.549	0.38249
456.901	0.38064
457.253	0.37878
457.604	0.3769
457.956	0.37505
458.308	0.37317
458.659	0.37119
459.011	0.36929
459.362	0.36747
459.714	0.36562
460.065	0.36364
460.417	0.36182
460.768	0.36002
461.12	0.35813
461.471	0.35618
461.822	0.35434
462.173	0.35244
462.525	0.35054
462.876	0.34867
463.227	0.34676
463.578	0.34489
463.929	0.34309
464.28	0.34116
464.631	0.33924
464.982	0.33749
465.332	0.33569
465.683	0.33384
466.034	0.33216
466.385	0.33031
466.735	0.32859
467.086	0.32671
467.437	0.32502
467.787	0.32318
468.138	0.32137
468.488	0.31962
468.839	0.31787
469.189	0.31613
469.539	0.31438
469.89	0.3126
470.24	0.31082
470.59	0.30911
470.94	0.30735
471.29	0.30555
471.64	0.30375
471.99	0.30195
472.34	0.29999
472.69	0.29813
473.04	0.2963
473.39	0.29443
473.74	0.29257
474.09	0.29067
474.439	0.28891
474.789	0.28702
475.139	0.28514
475.488	0.28319
475.838	0.28133
476.188	0.27941
476.537	0.27744
476.886	0.27551
477.236	0.27357
477.585	0.27165
477.935	0.26962
478.284	0.26766
478.633	0.26567
478.982	0.26378
479.331	0.2618
479.68	0.25992
480.03	0.25799
480.379	0.25602
480.728	0.25405
481.076	0.25215
481.425	0.25011
481.774	0.24808
482.123	0.24605
482.472	0.24407
482.821	0.2421
483.169	0.2401
483.518	0.23813
483.866	0.23611
484.215	0.23417
484.563	0.23215
484.912	0.23009
485.26	0.22814
485.609	0.22615
485.957	0.22419
486.305	0.22223
486.654	0.2203
487.002	0.21838
487.35	0.21654
487.698	0.21463
488.046	0.21275
488.394	0.21093
488.742	0.20913
489.09	0.2073
489.438	0.20555
489.786	0.20378
490.134	0.20205
490.482	0.20031
490.829	0.19864
491.177	0.19703
491.525	0.19541
491.872	0.19386
492.22	0.19234
492.567	0.19086
492.915	0.18938
493.262	0.18794
493.61	0.18652
493.957	0.18512
494.304	0.18376
494.652	0.18247
494.999	0.18115
495.346	0.17992
495.693	0.17866
496.04	0.17749
496.387	0.17641
496.734	0.17529
497.081	0.17422
497.428	0.17318
497.775	0.17221
498.122	0.17122
498.469	0.17031
498.816	0.16941
499.162	0.16854
499.509	0.16769
499.856	0.16687
500.202	0.16612
500.549	0.16541
500.895	0.16468
501.242	0.16402
501.588	0.16337
501.935	0.16269
502.281	0.16213
502.627	0.16153
502.973	0.161
503.32	0.16043
503.666	0.15984
504.012	0.15929
504.358	0.15876
504.704	0.15826
505.05	0.15776
505.396	0.15733
505.742	0.15683
506.088	0.15635
506.433	0.15589
506.779	0.15544
507.125	0.15502
507.471	0.15465
507.816	0.1542
508.162	0.15382
508.507	0.15342
508.853	0.153
509.198	0.15259
509.544	0.15218
509.889	0.1518
510.234	0.15139
510.58	0.15108
510.925	0.15073
511.27	0.15038
511.615	0.15003
511.96	0.1497
512.306	0.14932
512.651	0.14895
512.996	0.14859
513.341	0.14827
513.685	0.14793
514.03	0.14767
514.375	0.14728
514.72	0.14691
515.065	0.14654
515.409	0.14623
515.754	0.1459
516.099	0.14558
516.443	0.14526
516.788	0.145
517.132	0.1447
517.476	0.14441
517.821	0.14408
518.165	0.14375
518.51	0.14343
518.854	0.14317
519.198	0.14289
519.542	0.14264
519.886	0.14233
520.23	0.14202
520.574	0.14175
520.918	0.14151
521.262	0.14122
521.606	0.14095
521.95	0.14064
522.294	0.1404
522.638	0.1401
522.981	0.13983
523.325	0.13961
523.669	0.13939
524.012	0.13908
524.356	0.1388
524.699	0.13852
525.043	0.13825
525.386	0.13802
525.73	0.13777
526.073	0.13746
526.416	0.13715
526.76	0.13678
527.103	0.13651
527.446	0.1363
527.789	0.13604
528.132	0.13573
528.475	0.13545
528.818	0.13522
529.161	0.13501
529.504	0.13478
529.847	0.13452
530.19	0.13425
530.532	0.13395
530.875	0.13368
531.218	0.1334
531.56	0.13312
531.903	0.13283
532.246	0.13258
532.588	0.13229
532.93	0.13199
533.273	0.13171
533.615	0.13141
533.958	0.13115
534.3	0.13085
534.642	0.13049
534.984	0.13015
535.326	0.1298
535.669	0.12949
536.011	0.12911
536.353	0.12873
536.695	0.12836
537.037	0.12801
537.378	0.12762
537.72	0.12723
538.062	0.12685
538.404	0.12647
538.746	0.12612
539.087	0.12575
539.429	0.12535
539.77	0.12495
540.112	0.12455
540.454	0.12419
540.795	0.12385
541.136	0.12347
541.478	0.12307
541.819	0.12267
542.16	0.12221
542.502	0.12184
542.843	0.12135
543.184	0.12094
543.525	0.12052
543.866	0.12004
544.207	0.11958
544.548	0.11915
544.889	0.1187
545.23	0.11821
545.571	0.11767
545.911	0.11711
546.252	0.11655
546.593	0.11601
546.934	0.11546
547.274	0.11488
547.615	0.1143
547.955	0.11367
548.296	0.11302
548.636	0.11244
548.977	0.11181
549.317	0.11124
549.657	0.11059
549.997	0.10997
550.338	0.10934
550.678	0.10871
551.018	0.10808
551.358	0.1074
551.698	0.10671
552.038	0.106
552.378	0.10534
552.718	0.10472
553.058	0.1041
553.398	0.10347
553.737	0.10275
554.077	0.10205
554.417	0.10141
554.756	0.10073
555.096	0.10006
555.435	0.09943
555.775	0.09868
556.114	0.098
556.454	0.09727
556.793	0.09659
557.133	0.09592
557.472	0.09523
557.811	0.09452
558.15	0.09378
558.489	0.09307
558.829	0.09243
559.168	0.09173
559.507	0.09104
559.846	0.09036
560.184	0.08969
560.523	0.08904
560.862	0.08844
561.201	0.0878
561.54	0.08713
561.878	0.0865
562.217	0.08583
562.556	0.08518
562.894	0.08459
563.233	0.08399
563.571	0.08341
563.91	0.08284
564.248	0.08223
564.586	0.08163
564.925	0.08103
565.263	0.08046
565.601	0.07992
565.939	0.07934
566.277	0.07879
566.616	0.07825
566.954	0.07769
567.292	0.07715
567.63	0.07655
567.967	0.07599
568.305	0.07549
568.643	0.07498
568.981	0.07445
569.319	0.074
569.656	0.07354
569.994	0.07309
570.331	0.07258
570.669	0.07211
571.006	0.07161
571.344	0.07111
571.681	0.07065
572.019	0.07023
572.356	0.06987
572.693	0.06949
573.03	0.0691
573.368	0.06873
573.705	0.06835
574.042	0.06796
574.379	0.06759
574.716	0.06728
575.053	0.06694
575.39	0.06654
575.727	0.0662
576.063	0.0659
576.4	0.06561
576.737	0.06531
577.074	0.06497
577.41	0.06472
577.747	0.06442
578.083	0.06418
578.42	0.06392
578.756	0.06363
579.093	0.06336
579.429	0.06306
579.766	0.06276
580.102	0.06246
580.438	0.06217
580.774	0.06193
581.11	0.06174
581.446	0.06152
581.782	0.0613
582.119	0.06106
582.454	0.06089
582.79	0.06072
583.126	0.06048
583.462	0.0602
583.798	0.05997
584.134	0.05977
584.469	0.0596
584.805	0.05944
585.141	0.05926
585.476	0.05914
585.812	0.05901
586.147	0.05883
586.482	0.0587
586.818	0.0586
587.153	0.05847
587.488	0.05837
587.824	0.0582
588.159	0.05803
588.494	0.05789
588.829	0.05774
589.164	0.05764
589.499	0.05754
589.834	0.05738
590.169	0.05726
590.504	0.05722
590.839	0.05709
591.174	0.05699
591.508	0.05685
591.843	0.05673
592.178	0.05661
592.512	0.05651
592.847	0.05642
593.181	0.05637
593.516	0.05628
593.85	0.05616
594.185	0.0561
594.519	0.05603
594.853	0.05599
595.187	0.05592
595.522	0.05585
595.856	0.05579
596.19	0.05573
596.524	0.05567
596.858	0.05563
597.192	0.0556
597.526	0.0555
597.86	0.05545
598.194	0.05542
598.527	0.05539
598.861	0.05533
599.195	0.05528
599.528	0.05522
599.862	0.05517
600.196	0.05508
600.529	0.05501
600.863	0.05496
601.196	0.05488
601.529	0.05481
601.863	0.05475
602.196	0.05469
602.529	0.05464
602.862	0.05458
603.196	0.05451
603.529	0.0544
603.862	0.05432
604.195	0.05418
604.528	0.05411
604.861	0.05403
605.193	0.05393
605.526	0.05382
605.859	0.05374
606.192	0.05368
606.524	0.0536
606.857	0.05353
607.19	0.05348
607.522	0.05339
607.855	0.05332
608.187	0.05328
608.52	0.05317
608.852	0.0531
609.184	0.05305
609.517	0.05298
609.849	0.05287
610.181	0.05281
610.513	0.05275
610.845	0.05271
611.177	0.05268
611.509	0.05263
611.841	0.05259
612.173	0.05251
612.505	0.05246
612.837	0.05242
613.169	0.05237
613.5	0.0523
613.832	0.05224
614.164	0.05217
614.495	0.05213
614.827	0.05206
615.158	0.05199
615.49	0.05198
615.821	0.05192
616.152	0.05186
616.484	0.05177
616.815	0.05176
617.146	0.05168
617.477	0.05162
617.808	0.05155
618.14	0.05152
618.471	0.05146
618.802	0.0514
619.133	0.05135
619.463	0.05128
619.794	0.05116
620.125	0.0511
620.456	0.05101
620.787	0.05094
621.117	0.05091
621.448	0.05085
621.778	0.05079
622.109	0.05074
622.439	0.05065
622.77	0.05058
623.1	0.05049
623.43	0.05043
623.761	0.05036
624.091	0.05027
624.421	0.05022
624.751	0.05016
625.081	0.05005
625.412	0.05001
625.742	0.04997
626.072	0.04996
626.401	0.04992
626.731	0.04988
627.061	0.04983
627.391	0.04979
627.721	0.04972
628.05	0.04961
628.38	0.04952
628.71	0.04948
629.039	0.04941
629.369	0.04939
629.698	0.04939
630.028	0.04934
630.357	0.04929
630.686	0.04922
631.015	0.04917
631.345	0.04909
631.674	0.04901
632.003	0.04898
632.332	0.04886
632.661	0.04877
632.99	0.04865
633.319	0.0486
633.648	0.04853
633.977	0.04847
634.306	0.04845
634.634	0.04844
634.963	0.04839
635.292	0.04833
635.62	0.04828
635.949	0.04825
636.277	0.04817
636.606	0.04806
636.934	0.04798
637.263	0.04789
637.591	0.04786
637.919	0.04779
638.248	0.04778
638.576	0.04772
638.904	0.04767
639.232	0.04762
639.56	0.04761
639.888	0.0476
640.216	0.04754
640.544	0.04747
640.872	0.04745
641.2	0.04739
641.528	0.04733
641.855	0.0473
642.183	0.0473
642.511	0.04725
642.838	0.04719
643.166	0.04717
643.493	0.04712
643.821	0.0471
644.148	0.04708
644.475	0.04703
644.803	0.04699
645.13	0.0469
645.457	0.0469
645.784	0.04686
646.112	0.04687
646.439	0.04679
646.766	0.04675
647.093	0.04673
647.42	0.04672
647.746	0.04662
648.073	0.04659
648.4	0.04656
648.727	0.0465
649.053	0.04644
649.38	0.04639
649.707	0.04633
650.033	0.04623
650.36	0.04619
650.686	0.04616
651.013	0.04612
651.339	0.04612
651.665	0.04613
651.992	0.04613
652.318	0.04609
652.644	0.04607
652.97	0.04605
653.296	0.04604
653.622	0.04598
653.948	0.04593
654.274	0.0459
654.6	0.04588
654.926	0.04582
655.252	0.04577
655.578	0.04573
655.903	0.04566
656.229	0.04563
656.555	0.04562
656.88	0.04563
657.206	0.04561
657.531	0.04556
657.857	0.04555
658.182	0.0455
658.507	0.04546
658.833	0.04543
659.158	0.04534
659.483	0.04529
659.808	0.04521
660.133	0.04514
660.458	0.04511
660.783	0.04507
661.108	0.04502
661.433	0.045
661.758	0.04498
662.083	0.04495
662.408	0.04494
662.732	0.04496
663.057	0.04498
663.382	0.04495
663.706	0.0449
664.031	0.04491
664.355	0.04489
664.68	0.04487
665.004	0.04484
665.328	0.04482
665.653	0.04481
665.977	0.04483
666.301	0.04483
666.625	0.04485
666.949	0.04486
667.273	0.04486
667.597	0.04489
667.921	0.04491
668.245	0.04493
668.569	0.0449
668.893	0.04493
669.217	0.04489
669.54	0.04489
669.864	0.04485
670.188	0.04483
670.511	0.04482
670.835	0.04477
671.158	0.04474
671.482	0.04471
671.805	0.04466
672.128	0.04456
672.452	0.04449
672.775	0.04444
673.098	0.04437
673.421	0.04432
673.744	0.04429
674.068	0.04426
674.391	0.04421
674.714	0.04416
675.036	0.04407
675.359	0.04405
675.682	0.04398
676.005	0.04391
676.328	0.04388
676.65	0.04381
676.973	0.04376
677.295	0.04371
677.618	0.04369
677.94	0.04371
678.263	0.04372
678.585	0.04374
678.908	0.04376
679.23	0.04377
679.552	0.04377
679.874	0.04382
680.196	0.04382
680.519	0.04382
680.841	0.04381
681.163	0.04381
681.485	0.04376
681.807	0.0438
682.128	0.04379
682.45	0.04373
682.772	0.04377
683.094	0.04375
683.415	0.04377
683.737	0.04378
684.059	0.04381
684.38	0.04379
684.702	0.04374
685.023	0.04369
685.344	0.04362
685.666	0.04363
685.987	0.04355
686.308	0.04353
686.629	0.04349
686.95	0.04345
687.272	0.04342
687.593	0.04341
687.914	0.0434
688.235	0.04343
688.555	0.04338
688.876	0.04333
689.197	0.04334
689.518	0.04327
689.839	0.04322
690.159	0.04317
690.48	0.04309
690.8	0.04306
691.121	0.04304
691.441	0.043
691.762	0.04298
692.082	0.043
692.402	0.04294
692.723	0.04291
693.043	0.04288
693.363	0.04282
693.683	0.0428
694.003	0.04275
694.323	0.0427
694.643	0.04264
694.963	0.04259
695.283	0.0426
695.603	0.04259
695.923	0.04256
696.243	0.04256
696.562	0.04253
696.882	0.04252
697.202	0.04253
697.521	0.04248
697.841	0.04245
698.16	0.04241
698.479	0.04234
698.799	0.04233
699.118	0.04234
699.437	0.04239
699.757	0.04234
700.076	0.04239
700.395	0.04237
700.714	0.04238
701.033	0.04236
701.352	0.04238
701.671	0.04238
701.99	0.04234
702.308	0.04235
702.627	0.04236
702.946	0.04235
703.265	0.04239
703.583	0.04242
703.902	0.04241
704.22	0.04242
704.539	0.04244
704.857	0.04246
705.176	0.04249
705.494	0.04248
705.812	0.04248
706.131	0.04244
706.449	0.04246
706.767	0.04237
707.085	0.04235
707.403	0.04235
707.721	0.04236
708.039	0.04233
708.357	0.04233
708.675	0.04236
708.993	0.04241
709.31	0.0424
709.628	0.04243
709.946	0.04245
710.263	0.04244
710.581	0.04251
710.898	0.04256
711.216	0.04257
711.533	0.04262
711.851	0.04266
712.168	0.04269
712.485	0.04273
712.802	0.0428
713.12	0.04287
713.437	0.043
713.754	0.04309
714.071	0.04313
714.388	0.04321
714.705	0.04333
715.022	0.0434
715.338	0.04344
715.655	0.04354
715.972	0.04367
716.289	0.04373
716.605	0.04381
716.922	0.04388
717.238	0.0439
717.555	0.04395
717.871	0.04404
718.188	0.0441
718.504	0.04417
718.82	0.04422
719.136	0.04431
719.453	0.04437
719.769	0.04441
720.085	0.04445
720.401	0.04447
720.717	0.04452
721.033	0.04454
721.349	0.04454
721.665	0.04458
721.98	0.0446
722.296	0.04453
722.612	0.04453
722.927	0.04459
723.243	0.04463
723.559	0.04472
723.874	0.04477
724.19	0.04484
724.505	0.04496
724.82	0.04507
725.136	0.04515
725.451	0.04529
725.766	0.04534
726.081	0.04541
726.396	0.04557
726.711	0.04565
727.026	0.04579
727.341	0.04589
727.656	0.04599
727.971	0.04614
728.286	0.04618
728.601	0.0463
728.916	0.04649
729.23	0.0466
729.545	0.04668
729.859	0.04678
730.174	0.04681
730.488	0.04695
730.803	0.04707
731.117	0.04711
731.431	0.04723
731.746	0.04734
732.06	0.04738
732.374	0.04751
732.688	0.04758
733.002	0.04769
733.316	0.04783
733.63	0.0479
733.944	0.048
734.258	0.04812
734.572	0.04818
734.886	0.04835
735.199	0.04842
735.513	0.04844
735.827	0.04845
736.14	0.0485
736.454	0.04846
736.767	0.04851
737.081	0.04849
737.394	0.04843
737.708	0.0484
738.021	0.04833
738.334	0.04828
738.647	0.04825
738.96	0.0482
739.273	0.04823
739.587	0.04819
739.9	0.0481
740.212	0.04803
740.525	0.048
740.838	0.0479
741.151	0.04786
741.464	0.04778
741.776	0.04777
742.089	0.0477
742.402	0.04766
742.714	0.04763
743.027	0.04766
743.339	0.04755
743.651	0.04752
743.964	0.04754
744.276	0.04752
744.588	0.04752
744.901	0.04748
745.213	0.04745
745.525	0.04742
745.837	0.04733
746.149	0.04722
746.461	0.04721
746.773	0.04723
747.085	0.0472
747.396	0.04717
747.708	0.04713
748.02	0.04709
748.331	0.04704
748.643	0.047
748.955	0.04697
749.266	0.04696
749.577	0.04689
749.889	0.04691
750.2	0.04683
750.512	0.04676
750.823	0.04674
751.134	0.0467
751.445	0.04669
751.756	0.04662
752.067	0.04661
752.378	0.04655
752.689	0.04654
753	0.04649
753.311	0.04639
753.622	0.04637
753.932	0.04636
754.243	0.04626
754.554	0.04618
754.864	0.04605
755.175	0.046
755.485	0.04595
755.796	0.04578
756.106	0.04572
756.417	0.04564
756.727	0.04553
757.037	0.04544
757.347	0.0453
757.658	0.04511
757.968	0.04504
758.278	0.04493
758.588	0.04479
758.898	0.0447
759.208	0.04456
759.517	0.04447
759.827	0.04439
760.137	0.04419
760.447	0.04411
760.756	0.044
761.066	0.04393
761.375	0.04385
761.685	0.0438
761.994	0.04367
762.304	0.04364
762.613	0.0436
762.922	0.04356
763.232	0.04347
763.541	0.04338
763.85	0.04335
764.159	0.04325
764.468	0.04315
764.777	0.04313
765.086	0.0431
765.395	0.04305
765.704	0.04302
766.013	0.04298
766.321	0.04292
766.63	0.04298
766.939	0.04295
767.247	0.04303
767.556	0.04305
767.864	0.04312
768.173	0.04306
768.481	0.04309
768.789	0.04309
769.098	0.04304
769.406	0.04303
769.714	0.04307
770.022	0.04306
770.33	0.04296
770.638	0.04297
770.946	0.04287
771.254	0.04276
771.562	0.04263
771.87	0.04257
772.178	0.04245
772.486	0.04237
772.793	0.04229
773.101	0.0421
773.408	0.04195
773.716	0.04175
774.023	0.0416
774.331	0.04145
774.638	0.04128
774.946	0.0412
775.253	0.04102
775.56	0.04093
775.867	0.04075
776.174	0.04056
776.481	0.04043
776.788	0.04029
777.095	0.04015
777.402	0.04001
777.709	0.03995
778.016	0.03988
778.323	0.03969
778.63	0.03961
778.936	0.03942
779.243	0.03928
779.549	0.03918
779.856	0.03904
780.162	0.03892
780.469	0.0387
780.775	0.03847
781.082	0.03835
781.388	0.03815
781.694	0.03802
782	0.0378
782.306	0.03765
782.612	0.03751
782.918	0.03734
783.224	0.03721
783.53	0.03716
783.836	0.03714
784.142	0.03704
784.448	0.03688
784.753	0.03678
785.059	0.03656
785.365	0.03645
785.67	0.03636
785.976	0.03626
786.281	0.03612
786.586	0.03597
786.892	0.03591
787.197	0.03588
787.502	0.03582
787.808	0.0357
788.113	0.03553
788.418	0.03541
788.723	0.03522
789.028	0.03514
789.333	0.03498
789.638	0.03495
789.942	0.03483
790.247	0.03462
790.552	0.03452
790.857	0.03434
791.161	0.03422
791.466	0.03404
791.77	0.03381
792.075	0.03358
792.379	0.03341
792.684	0.03325
792.988	0.03301
793.292	0.03273
793.597	0.03248
793.901	0.0323
794.205	0.03211
794.509	0.03205
794.813	0.03193
795.117	0.03178
795.421	0.03165
795.725	0.03169
796.029	0.03147
796.332	0.03124
796.636	0.03103
796.94	0.03079
797.243	0.03062
797.547	0.0304
797.85	0.03024
798.154	0.03006
798.457	0.02983
798.761	0.02968
799.064	0.02948
799.367	0.02948
799.67	0.02947
799.973	0.02946
800.277	0.0293
800.58	0.02909
800.883	0.02897
801.186	0.0289
801.488	0.0289
801.791	0.02886
802.094	0.02857
802.397	0.02853
802.699	0.02857
803.002	0.02865
803.305	0.02863
803.607	0.02859
803.91	0.02859
804.212	0.02862
804.515	0.02863
804.817	0.02866
805.119	0.02848
805.421	0.02845
805.724	0.02823
806.026	0.02806
806.328	0.02789
806.63	0.02783
806.932	0.02778
807.234	0.0276
807.535	0.02749
807.837	0.02733
808.139	0.02716
808.441	0.02714
808.742	0.02697
809.044	0.02688
809.346	0.02664
809.647	0.02654
809.948	0.02649
810.25	0.02636
810.551	0.02634
810.853	0.02623
811.154	0.02609
811.455	0.0259
811.756	0.02578
812.057	0.02579
812.358	0.02575
812.659	0.02562
812.96	0.02555
813.261	0.02554
813.562	0.02558
813.863	0.02543
814.163	0.02536
814.464	0.02539
814.765	0.02528
815.065	0.0252
815.366	0.02493
815.666	0.02481
815.967	0.02457
816.267	0.02435
816.567	0.02422
816.868	0.0239
817.168	0.02372
817.468	0.02367
817.768	0.02375
818.068	0.02368
818.368	0.02353
818.668	0.02347
818.968	0.02337
819.268	0.02327
819.568	0.02312
819.867	0.02303
820.167	0.02293
820.467	0.02281
820.766	0.02266
821.066	0.02249
821.365	0.02242
821.665	0.02256
821.964	0.02257
822.263	0.02274
822.563	0.02284
822.862	0.02292
823.161	0.02317
823.46	0.02332
823.759	0.02323
824.058	0.0233
824.357	0.02342
824.656	0.02361
824.955	0.02362
825.254	0.02395
825.552	0.02414
825.851	0.02426
826.15	0.02413
826.448	0.02426
826.747	0.02442
827.045	0.02435
827.344	0.02474
827.642	0.02481
827.941	0.02492
828.239	0.02505
828.537	0.02505
828.835	0.02505
829.133	0.02504
829.432	0.02503
829.73	0.02514
830.028	0.02529
830.325	0.02521
830.623	0.02519
830.921	0.02505
831.219	0.02524
831.517	0.02525
831.814	0.02514
832.112	0.02521
832.409	0.02561
832.707	0.0258
833.004	0.02593
833.302	0.02591
833.599	0.02581
833.896	0.02601
834.194	0.0259
834.491	0.02604
834.788	0.02617
835.085	0.02651
835.382	0.02652
835.679	0.02683
835.976	0.02703
836.273	0.02716
836.57	0.02743
836.866	0.02752
837.163	0.02763
837.46	0.02772
837.756	0.02761
838.053	0.02801
838.349	0.02808
838.646	0.02798
838.942	0.02809
839.239	0.02832
839.535	0.02881
839.831	0.02896
840.127	0.02931
840.423	0.02964
840.72	0.0297
841.016	0.03011
841.312	0.03025
841.607	0.03073
841.903	0.03069
842.199	0.03103
842.495	0.03142
842.791	0.03124
843.086	0.03166
843.382	0.0324
843.677	0.03245
843.973	0.03271
844.268	0.03279
844.564	0.03328
844.859	0.03389
845.154	0.03388
845.45	0.034
845.745	0.03404
846.04	0.03419
846.335	0.03386
846.63	0.03346
846.925	0.03436
847.22	0.03474
847.515	0.03522
847.81	0.03577
848.104	0.03623
848.399	0.03625
848.694	0.03627
848.988	0.03702
849.283	0.03682
849.578	0.03724
849.872	0.03802
850.166	0.03871
850.461	0.03922
850.755	0.04033
851.049	0.04086
851.343	0.0418
851.638	0.04203
851.932	0.04243
852.226	0.04325
852.52	0.04383
852.814	0.04597
853.107	0.04543
853.401	0.04548
853.695	0.04584
853.989	0.04625
854.282	0.04685
854.576	0.04703
854.869	0.04775
855.163	0.04922
855.456	0.05003
855.75	0.05073
856.043	0.05205
856.336	0.0528
856.63	0.05382
856.923	0.054
857.216	0.05338
857.509	0.05334
857.802	0.05406
858.095	0.05456
858.388	0.05604
858.681	0.05765
858.974	0.05714
859.266	0.05795
859.559	0.05832
859.852	0.05882
860.144	0.05942
860.437	0.06003
860.729	0.06187
861.022	0.06192
861.314	0.06179
861.606	0.06277
861.899	0.06332
862.191	0.06268
862.483	0.06243
862.775	0.06223
863.067	0.06202
863.359	0.06299
863.651	0.06418
863.943	0.06461
864.235	0.0648
864.527	0.06473
864.819	0.06495
865.11	0.06486
865.402	0.06544
865.693	0.06544
865.985	0.06539
866.276	0.0646
866.568	0.0652
866.859	0.06555
867.151	0.06642
867.442	0.06612
867.733	0.06717
868.024	0.06636
868.315	0.06562
868.606	0.06611
868.897	0.0668
869.188	0.06639
869.479	0.06614
869.77	0.06512
870.061	0.065
870.351	0.06534
870.642	0.06478
870.933	0.06429
871.223	0.06488
871.514	0.06473
871.804	0.06536
872.095	0.065
872.385	0.06622
872.675	0.06482
