Data from 230119_AuandAgNPs_24hpostreflux_Absorbance_16-09-24-636.txt Node
Date: Thu Jan 19 16:09:24 EST 2023
User: UV-vis
Spectrometer: FLMS04918
Trigger mode: 0
Integration Time (sec): 3.220000E-3
Scans to average: 10
Electric dark correction enabled: true
Nonlinearity correction enabled: false
Boxcar width: 10
XAxis mode: Wavelengths
Number of Pixels in Spectrum: 2048
>>>>>Begin Spectral Data<<<<<
179.23	-0.07025
179.611	-0.17894
179.992	-0.38062
180.373	-0.39784
180.754	-0.12844
181.134	-0.15056
181.515	-0.04089
181.896	-0.08589
182.276	0.0862
182.657	0.20799
183.038	0.09909
183.418	-0.02041
183.799	0.17085
184.179	0.39433
184.56	0.29394
184.94	0.28931
185.32	0.30111
185.701	0.29632
186.081	0.30127
186.461	0.29154
186.842	0.29408
187.222	0.29601
187.602	0.29608
187.982	0.29615
188.362	0.29769
188.742	0.30289
189.122	0.305
189.502	0.30644
189.882	0.30652
190.262	0.30977
190.642	0.30902
191.022	0.30665
191.402	0.30639
191.781	0.30848
192.161	0.30701
192.541	0.30878
192.92	0.30961
193.3	0.30924
193.68	0.30941
194.059	0.3102
194.439	0.31296
194.818	0.31416
195.198	0.31627
195.577	0.31658
195.957	0.31848
196.336	0.31778
196.715	0.31673
197.094	0.31642
197.474	0.31635
197.853	0.31729
198.232	0.31777
198.611	0.31901
198.99	0.3224
199.369	0.32279
199.748	0.32232
200.127	0.32334
200.506	0.32333
200.885	0.32432
201.264	0.32621
201.643	0.32585
202.022	0.32504
202.401	0.32583
202.779	0.32456
203.158	0.32475
203.537	0.32663
203.915	0.32688
204.294	0.32876
204.673	0.33007
205.051	0.33013
205.43	0.32997
205.808	0.33185
206.187	0.33123
206.565	0.33377
206.943	0.33199
207.322	0.33091
207.7	0.33027
208.078	0.33072
208.456	0.33222
208.835	0.33205
209.213	0.33072
209.591	0.33305
209.969	0.33433
210.347	0.33391
210.725	0.33593
211.103	0.33458
211.481	0.3339
211.859	0.33342
212.237	0.33407
212.614	0.33447
212.992	0.33645
213.37	0.33776
213.748	0.33379
214.125	0.33452
214.503	0.33384
214.881	0.33316
215.258	0.33433
215.636	0.33479
216.013	0.3336
216.391	0.33606
216.768	0.33573
217.145	0.33663
217.523	0.33526
217.9	0.33447
218.277	0.33395
218.655	0.33355
219.032	0.33521
219.409	0.334
219.786	0.33453
220.163	0.33582
220.54	0.33782
220.917	0.33665
221.294	0.33535
221.671	0.3371
222.048	0.33782
222.425	0.33742
222.802	0.33894
223.179	0.34186
223.556	0.34448
223.932	0.34644
224.309	0.34517
224.686	0.34756
225.062	0.34836
225.439	0.35045
225.815	0.35251
226.192	0.35316
226.568	0.35251
226.945	0.35128
227.321	0.35332
227.698	0.35296
228.074	0.35206
228.45	0.35024
228.827	0.35184
229.203	0.35303
229.579	0.35403
229.955	0.35398
230.331	0.35564
230.707	0.35527
231.083	0.35424
231.46	0.35421
231.835	0.35512
232.211	0.35382
232.587	0.35489
232.963	0.3569
233.339	0.35689
233.715	0.35597
234.091	0.35825
234.466	0.35902
234.842	0.36157
235.218	0.36458
235.593	0.36595
235.969	0.36756
236.344	0.36974
236.72	0.36882
237.095	0.37154
237.471	0.37128
237.846	0.374
238.222	0.37665
238.597	0.37728
238.972	0.37733
239.348	0.3793
239.723	0.38098
240.098	0.3831
240.473	0.3829
240.848	0.38316
241.223	0.3845
241.598	0.38584
241.973	0.38472
242.348	0.38673
242.723	0.38665
243.098	0.38524
243.473	0.38766
243.848	0.38866
244.223	0.39181
244.597	0.39377
244.972	0.39515
245.347	0.39881
245.721	0.39806
246.096	0.39735
246.47	0.40081
246.845	0.40223
247.219	0.4025
247.594	0.40209
247.968	0.40542
248.343	0.40764
248.717	0.40777
249.091	0.41015
249.466	0.41335
249.84	0.41516
250.214	0.41775
250.588	0.42207
250.962	0.4231
251.336	0.42405
251.71	0.4251
252.084	0.42302
252.458	0.42459
252.832	0.42344
253.206	0.42502
253.58	0.42683
253.954	0.42961
254.328	0.42817
254.702	0.43016
255.075	0.43154
255.449	0.43583
255.823	0.43689
256.196	0.43827
256.57	0.43935
256.943	0.44043
257.317	0.43961
257.69	0.44129
258.064	0.44174
258.437	0.44101
258.81	0.44326
259.184	0.44348
259.557	0.44652
259.93	0.44869
260.303	0.45037
260.677	0.45396
261.05	0.45482
261.423	0.45586
261.796	0.45765
262.169	0.46007
262.542	0.46292
262.915	0.46311
263.288	0.46293
263.661	0.46294
264.033	0.46353
264.406	0.46579
264.779	0.46717
265.152	0.47005
265.524	0.47189
265.897	0.4748
266.27	0.47647
266.642	0.47944
267.015	0.48279
267.387	0.48398
267.76	0.48525
268.132	0.48794
268.504	0.48884
268.877	0.49107
269.249	0.49231
269.621	0.49456
269.994	0.49861
270.366	0.50156
270.738	0.50548
271.11	0.509
271.482	0.51311
271.854	0.51711
272.226	0.52113
272.598	0.5252
272.97	0.52813
273.342	0.53171
273.714	0.53554
274.086	0.53982
274.458	0.54232
274.829	0.5457
275.201	0.54827
275.573	0.55437
275.944	0.5591
276.316	0.56386
276.688	0.56924
277.059	0.57757
277.431	0.58457
277.802	0.59505
278.173	0.6093
278.545	0.63081
278.916	0.66087
279.287	0.70227
279.659	0.75292
280.03	0.80724
280.401	0.86082
280.772	0.91001
281.143	0.95116
281.515	0.98308
281.886	1.00576
282.257	1.01897
282.628	1.02469
282.998	1.02329
283.369	1.01716
283.74	1.00768
284.111	0.99656
284.482	0.98394
284.853	0.97119
285.223	0.95741
285.594	0.94401
285.965	0.93095
286.335	0.9173
286.706	0.90381
287.076	0.88978
287.447	0.87582
287.817	0.86135
288.188	0.84669
288.558	0.83091
288.928	0.81407
289.299	0.7962
289.669	0.77807
290.039	0.75954
290.409	0.74158
290.779	0.72465
291.149	0.70873
291.52	0.69422
291.89	0.68086
292.26	0.66836
292.629	0.6566
292.999	0.64597
293.369	0.63591
293.739	0.62644
294.109	0.61801
294.479	0.60996
294.848	0.60254
295.218	0.59501
295.588	0.58768
295.957	0.58044
296.327	0.57339
296.696	0.56619
297.066	0.55886
297.435	0.55163
297.805	0.54413
298.174	0.53663
298.544	0.52913
298.913	0.5216
299.282	0.51412
299.651	0.50666
300.021	0.49948
300.39	0.49248
300.759	0.48568
301.128	0.47937
301.497	0.47342
301.866	0.46778
302.235	0.46235
302.604	0.45711
302.973	0.45213
303.342	0.44706
303.71	0.44141
304.079	0.43573
304.448	0.42983
304.817	0.42393
305.185	0.41744
305.554	0.41097
305.923	0.40454
306.291	0.39776
306.66	0.39134
307.028	0.38517
307.397	0.37853
307.765	0.37224
308.133	0.36569
308.502	0.35943
308.87	0.35266
309.238	0.34586
309.606	0.33934
309.975	0.33298
310.343	0.32663
310.711	0.32096
311.079	0.31569
311.447	0.31083
311.815	0.30658
312.183	0.30329
312.551	0.30064
312.919	0.29872
313.286	0.29785
313.654	0.29762
314.022	0.29843
314.39	0.29931
314.757	0.29999
315.125	0.30095
315.492	0.30154
315.86	0.30186
316.228	0.30152
316.595	0.30117
316.962	0.30039
317.33	0.29907
317.697	0.2972
318.065	0.29499
318.432	0.29184
318.799	0.28848
319.166	0.28504
319.534	0.2814
319.901	0.27782
320.268	0.27471
320.635	0.27193
321.002	0.26896
321.369	0.26575
321.736	0.26198
322.103	0.25827
322.47	0.25461
322.836	0.25114
323.203	0.24775
323.57	0.24474
323.937	0.24192
324.303	0.23923
324.67	0.2368
325.037	0.23434
325.403	0.23241
325.77	0.23066
326.136	0.22929
326.503	0.22813
326.869	0.22719
327.235	0.22641
327.602	0.22535
327.968	0.22398
328.334	0.22221
328.7	0.22035
329.067	0.21849
329.433	0.21671
329.799	0.21487
330.165	0.21337
330.531	0.2121
330.897	0.21093
331.263	0.21035
331.629	0.20985
331.995	0.20969
332.36	0.20993
332.726	0.21031
333.092	0.2109
333.458	0.21177
333.823	0.21251
334.189	0.2136
334.554	0.21457
334.92	0.21548
335.286	0.2167
335.651	0.2179
336.016	0.21919
336.382	0.22051
336.747	0.22174
337.113	0.22296
337.478	0.2242
337.843	0.22537
338.208	0.22657
338.573	0.22793
338.939	0.22923
339.304	0.23087
339.669	0.23246
340.034	0.23381
340.399	0.23566
340.764	0.23715
341.129	0.2388
341.493	0.24075
341.858	0.24246
342.223	0.24472
342.588	0.24696
342.952	0.24912
343.317	0.25122
343.682	0.25313
344.046	0.255
344.411	0.25727
344.775	0.25951
345.14	0.26178
345.504	0.26403
345.869	0.26606
346.233	0.26791
346.597	0.26931
346.962	0.2707
347.326	0.27208
347.69	0.2733
348.054	0.27395
348.418	0.27481
348.782	0.27534
349.146	0.27601
349.51	0.27653
349.874	0.27687
350.238	0.27741
350.602	0.27779
350.966	0.27822
351.33	0.27887
351.693	0.27943
352.057	0.27979
352.421	0.28048
352.784	0.28152
353.148	0.28251
353.512	0.28375
353.875	0.2851
354.239	0.28675
354.602	0.2883
354.966	0.28997
355.329	0.29217
355.692	0.29457
356.056	0.29721
356.419	0.30011
356.782	0.303
357.145	0.30629
357.508	0.30941
357.871	0.3126
358.234	0.31601
358.597	0.31943
358.96	0.32277
359.323	0.32636
359.686	0.32992
360.049	0.33344
360.412	0.33648
360.775	0.33964
361.137	0.34256
361.5	0.34542
361.863	0.34816
362.225	0.35075
362.588	0.35315
362.951	0.35524
363.313	0.35736
363.675	0.3591
364.038	0.36114
364.4	0.36313
364.763	0.36508
365.125	0.3673
365.487	0.36948
365.849	0.37173
366.212	0.37402
366.574	0.37663
366.936	0.37932
367.298	0.3821
367.66	0.38466
368.022	0.38737
368.384	0.39004
368.746	0.3929
369.108	0.3957
369.469	0.39858
369.831	0.40147
370.193	0.40441
370.555	0.40706
370.916	0.40993
371.278	0.41288
371.64	0.41521
372.001	0.41786
372.363	0.42034
372.724	0.42299
373.086	0.42549
373.447	0.42771
373.808	0.42988
374.17	0.43178
374.531	0.43344
374.892	0.43494
375.253	0.43663
375.615	0.43853
375.976	0.44058
376.337	0.44318
376.698	0.44622
377.059	0.44933
377.42	0.45289
377.781	0.45707
378.141	0.46169
378.502	0.46579
378.863	0.46999
379.224	0.47487
379.585	0.47946
379.945	0.48399
380.306	0.48843
380.666	0.49286
381.027	0.49749
381.388	0.50196
381.748	0.50681
382.108	0.51152
382.469	0.51649
382.829	0.52138
383.19	0.52611
383.55	0.53035
383.91	0.5337
384.27	0.53651
384.63	0.53913
384.991	0.54164
385.351	0.54365
385.711	0.54616
386.071	0.54923
386.431	0.55229
386.791	0.55511
387.15	0.55812
387.51	0.56119
387.87	0.5636
388.23	0.56596
388.589	0.56789
388.949	0.56958
389.309	0.57143
389.668	0.57377
390.028	0.5767
390.387	0.58028
390.747	0.58436
391.106	0.58936
391.466	0.59524
391.825	0.60206
392.184	0.60917
392.544	0.61626
392.903	0.62414
393.262	0.63115
393.621	0.63809
393.98	0.64494
394.339	0.65161
394.698	0.65813
395.057	0.66483
395.416	0.67268
395.775	0.68125
396.134	0.69086
396.493	0.70159
396.852	0.71271
397.211	0.7238
397.569	0.7345
397.928	0.745
398.287	0.75558
398.645	0.76554
399.004	0.77529
399.362	0.78448
399.721	0.79397
400.079	0.80332
400.438	0.81143
400.796	0.81992
401.154	0.82834
401.512	0.83734
401.871	0.8462
402.229	0.85555
402.587	0.86525
402.945	0.87471
403.303	0.88391
403.661	0.89258
404.019	0.90074
404.377	0.90777
404.735	0.9144
405.093	0.92024
405.451	0.92618
405.808	0.9316
406.166	0.93719
406.524	0.94264
406.882	0.9485
407.239	0.95407
407.597	0.96006
407.954	0.96649
408.312	0.97309
408.669	0.97993
409.027	0.98666
409.384	0.99402
409.741	1.00128
410.099	1.00819
410.456	1.01449
410.813	1.0208
411.17	1.02709
411.527	1.03396
411.884	1.04135
412.242	1.04943
412.599	1.05796
412.956	1.06618
413.312	1.07464
413.669	1.0837
414.026	1.09261
414.383	1.10145
414.74	1.11013
415.096	1.11864
415.453	1.12709
415.81	1.13633
416.166	1.14603
416.523	1.15593
416.879	1.16559
417.236	1.17439
417.592	1.18311
417.949	1.19157
418.305	1.19993
418.661	1.20832
419.018	1.21608
419.374	1.22376
419.73	1.23137
420.086	1.23879
420.442	1.24626
420.798	1.25317
421.154	1.25925
421.51	1.26472
421.866	1.26934
422.222	1.27408
422.578	1.27857
422.934	1.28287
423.29	1.28557
423.646	1.28818
424.001	1.29026
424.357	1.29252
424.713	1.29495
425.068	1.29759
425.424	1.30022
425.779	1.30183
426.135	1.30261
426.49	1.30233
426.845	1.30123
427.201	1.29956
427.556	1.29729
427.911	1.29363
428.266	1.29044
428.622	1.28628
428.977	1.28239
429.332	1.27847
429.687	1.27395
430.042	1.26941
430.397	1.26517
430.752	1.26138
431.107	1.25748
431.461	1.25378
431.816	1.24966
432.171	1.24599
432.526	1.24183
432.88	1.23724
433.235	1.23212
433.59	1.22677
433.944	1.22114
434.299	1.21523
434.653	1.20927
435.008	1.20353
435.362	1.19778
435.716	1.19181
436.071	1.18561
436.425	1.17915
436.779	1.17242
437.133	1.16561
437.487	1.15813
437.841	1.15061
438.195	1.14322
438.549	1.13486
438.903	1.12639
439.257	1.11864
439.611	1.10982
439.965	1.10042
440.319	1.09128
440.673	1.08251
441.026	1.07342
441.38	1.06444
441.734	1.05577
442.087	1.04664
442.441	1.03726
442.794	1.02823
443.148	1.01882
443.501	1.00975
443.855	1.00077
444.208	0.99225
444.561	0.98354
444.915	0.97463
445.268	0.96594
445.621	0.95711
445.974	0.94912
446.327	0.94131
446.68	0.9328
447.033	0.92484
447.386	0.91675
447.739	0.90935
448.092	0.90147
448.445	0.89362
448.798	0.88627
449.15	0.87884
449.503	0.87147
449.856	0.86411
450.209	0.85667
450.561	0.84948
450.914	0.84271
451.266	0.83561
451.619	0.82842
451.971	0.82139
452.323	0.81436
452.676	0.80735
453.028	0.80043
453.38	0.79359
453.733	0.78642
454.085	0.77949
454.437	0.77255
454.789	0.76609
455.141	0.75926
455.493	0.75284
455.845	0.74648
456.197	0.73984
456.549	0.73336
456.901	0.7271
457.253	0.72075
457.604	0.71495
457.956	0.70926
458.308	0.70328
458.659	0.69749
459.011	0.69183
459.362	0.6862
459.714	0.68087
460.065	0.6757
460.417	0.67074
460.768	0.66565
461.12	0.66079
461.471	0.65606
461.822	0.65143
462.173	0.64693
462.525	0.64233
462.876	0.63786
463.227	0.63349
463.578	0.62937
463.929	0.62536
464.28	0.62146
464.631	0.61746
464.982	0.61349
465.332	0.60926
465.683	0.60534
466.034	0.60165
466.385	0.59795
466.735	0.59439
467.086	0.59094
467.437	0.58728
467.787	0.58392
468.138	0.58058
468.488	0.57723
468.839	0.57385
469.189	0.57049
469.539	0.5672
469.89	0.56398
470.24	0.56076
470.59	0.55772
470.94	0.55465
471.29	0.55175
471.64	0.54885
471.99	0.54601
472.34	0.5431
472.69	0.54072
473.04	0.53825
473.39	0.53592
473.74	0.53353
474.09	0.53099
474.439	0.52858
474.789	0.52623
475.139	0.52406
475.488	0.52178
475.838	0.51956
476.188	0.51744
476.537	0.51542
476.886	0.51338
477.236	0.51134
477.585	0.50944
477.935	0.5075
478.284	0.50586
478.633	0.50393
478.982	0.50221
479.331	0.50051
479.68	0.49895
480.03	0.49738
480.379	0.49598
480.728	0.49443
481.076	0.49285
481.425	0.49138
481.774	0.49009
482.123	0.48876
482.472	0.48722
482.821	0.486
483.169	0.48477
483.518	0.48365
483.866	0.48247
484.215	0.48148
484.563	0.48066
484.912	0.47974
485.26	0.4788
485.609	0.47784
485.957	0.47724
486.305	0.47645
486.654	0.47572
487.002	0.47505
487.35	0.4744
487.698	0.4738
488.046	0.47332
488.394	0.47306
488.742	0.47258
489.09	0.47208
489.438	0.47171
489.786	0.47159
490.134	0.4713
490.482	0.47096
490.829	0.47073
491.177	0.4707
491.525	0.4705
491.872	0.47028
492.22	0.47022
492.567	0.47015
492.915	0.47006
493.262	0.46993
493.61	0.47015
493.957	0.47042
494.304	0.47076
494.652	0.47089
494.999	0.471
495.346	0.47116
495.693	0.4713
496.04	0.47173
496.387	0.47214
496.734	0.47279
497.081	0.47314
497.428	0.47372
497.775	0.47441
498.122	0.47503
498.469	0.47566
498.816	0.47634
499.162	0.47696
499.509	0.47779
499.856	0.47861
500.202	0.47955
500.549	0.48047
500.895	0.48137
501.242	0.4822
501.588	0.48308
501.935	0.48421
502.281	0.48536
502.627	0.4864
502.973	0.48735
503.32	0.48854
503.666	0.48976
504.012	0.49069
504.358	0.49195
504.704	0.49302
505.05	0.49403
505.396	0.49525
505.742	0.49643
506.088	0.49767
506.433	0.49899
506.779	0.50009
507.125	0.50151
507.471	0.50257
507.816	0.50385
508.162	0.50483
508.507	0.50616
508.853	0.5073
509.198	0.5085
509.544	0.50958
509.889	0.5109
510.234	0.51219
510.58	0.51343
510.925	0.51465
511.27	0.51593
511.615	0.51703
511.96	0.51822
512.306	0.51954
512.651	0.52072
512.996	0.52191
513.341	0.52308
513.685	0.52435
514.03	0.52554
514.375	0.52653
514.72	0.52788
515.065	0.52896
515.409	0.53027
515.754	0.53126
516.099	0.5323
516.443	0.53319
516.788	0.53433
517.132	0.53528
517.476	0.5362
517.821	0.53687
518.165	0.5375
518.51	0.53819
518.854	0.53893
519.198	0.53967
519.542	0.54032
519.886	0.54092
520.23	0.54149
520.574	0.54202
520.918	0.54236
521.262	0.54278
521.606	0.5433
521.95	0.54362
522.294	0.5439
522.638	0.54401
522.981	0.54416
523.325	0.54437
523.669	0.54449
524.012	0.54453
524.356	0.54467
524.699	0.54467
525.043	0.54463
525.386	0.54442
525.73	0.54438
526.073	0.5442
526.416	0.54378
526.76	0.54334
527.103	0.54292
527.446	0.54259
527.789	0.5421
528.132	0.54162
528.475	0.54116
528.818	0.54034
529.161	0.53965
529.504	0.53885
529.847	0.53813
530.19	0.53714
530.532	0.53609
530.875	0.53503
531.218	0.53385
531.56	0.53252
531.903	0.53138
532.246	0.53022
532.588	0.52906
532.93	0.52766
533.273	0.52628
533.615	0.52487
533.958	0.52357
534.3	0.52207
534.642	0.52037
534.984	0.5187
535.326	0.51698
535.669	0.51504
536.011	0.51333
536.353	0.5113
536.695	0.50944
537.037	0.50745
537.378	0.50559
537.72	0.50359
538.062	0.50161
538.404	0.49952
538.746	0.49736
539.087	0.49515
539.429	0.49276
539.77	0.49043
540.112	0.48806
540.454	0.48558
540.795	0.48307
541.136	0.48052
541.478	0.4779
541.819	0.47536
542.16	0.47263
542.502	0.47005
542.843	0.46744
543.184	0.46467
543.525	0.46205
543.866	0.45917
544.207	0.45627
544.548	0.45338
544.889	0.45042
545.23	0.44736
545.571	0.44441
545.911	0.44128
546.252	0.43823
546.593	0.43536
546.934	0.43242
547.274	0.42929
547.615	0.42609
547.955	0.42314
548.296	0.41985
548.636	0.41676
548.977	0.41351
549.317	0.41038
549.657	0.40713
549.997	0.40387
550.338	0.40063
550.678	0.39743
551.018	0.39413
551.358	0.39095
551.698	0.38766
552.038	0.38434
552.378	0.38111
552.718	0.37782
553.058	0.37476
553.398	0.37148
553.737	0.36814
554.077	0.36474
554.417	0.36162
554.756	0.35844
555.096	0.35513
555.435	0.35202
555.775	0.34879
556.114	0.34563
556.454	0.34252
556.793	0.33942
557.133	0.33633
557.472	0.33315
557.811	0.33001
558.15	0.32691
558.489	0.32366
558.829	0.32067
559.168	0.31775
559.507	0.31471
559.846	0.31152
560.184	0.30834
560.523	0.30536
560.862	0.30241
561.201	0.29938
561.54	0.29622
561.878	0.29329
562.217	0.29033
562.556	0.28735
562.894	0.28429
563.233	0.28138
563.571	0.27838
563.91	0.27534
564.248	0.27241
564.586	0.26956
564.925	0.26655
565.263	0.26369
565.601	0.26083
565.939	0.25785
566.277	0.25495
566.616	0.25203
566.954	0.24929
567.292	0.24651
567.63	0.24364
567.967	0.2408
568.305	0.23804
568.643	0.23545
568.981	0.23277
569.319	0.22999
569.656	0.22731
569.994	0.22486
570.331	0.22226
570.669	0.21973
571.006	0.21723
571.344	0.21465
571.681	0.21221
572.019	0.2098
572.356	0.20745
572.693	0.20514
573.03	0.20281
573.368	0.20053
573.705	0.1983
574.042	0.19611
574.379	0.19388
574.716	0.19178
575.053	0.18966
575.39	0.1876
575.727	0.18553
576.063	0.18349
576.4	0.18169
576.737	0.17972
577.074	0.17777
577.41	0.17584
577.747	0.17404
578.083	0.17232
578.42	0.17055
578.756	0.16881
579.093	0.16715
579.429	0.16542
579.766	0.16384
580.102	0.16231
580.438	0.16076
580.774	0.1593
581.11	0.15785
581.446	0.15642
581.782	0.15499
582.119	0.15367
582.454	0.15229
582.79	0.15099
583.126	0.14969
583.462	0.14833
583.798	0.14715
584.134	0.14584
584.469	0.14469
584.805	0.14342
585.141	0.14213
585.476	0.141
585.812	0.13982
586.147	0.13864
586.482	0.13754
586.818	0.13646
587.153	0.13538
587.488	0.1343
587.824	0.13321
588.159	0.13216
588.494	0.1312
588.829	0.13022
589.164	0.12926
589.499	0.12828
589.834	0.12726
590.169	0.12634
590.504	0.12538
590.839	0.12443
591.174	0.12358
591.508	0.12257
591.843	0.12171
592.178	0.12084
592.512	0.12
592.847	0.11916
593.181	0.11841
593.516	0.11758
593.85	0.11672
594.185	0.11588
594.519	0.11517
594.853	0.11444
595.187	0.11367
595.522	0.11286
595.856	0.11212
596.19	0.11139
596.524	0.11074
596.858	0.11013
597.192	0.10935
597.526	0.10872
597.86	0.10799
598.194	0.10726
598.527	0.10667
598.861	0.10607
599.195	0.10539
599.528	0.10483
599.862	0.10427
600.196	0.10356
600.529	0.10303
600.863	0.10241
601.196	0.10187
601.529	0.10119
601.863	0.10052
602.196	0.09994
602.529	0.09937
602.862	0.09874
603.196	0.09813
603.529	0.09746
603.862	0.09674
604.195	0.09611
604.528	0.09537
604.861	0.09477
605.193	0.09419
605.526	0.09352
605.859	0.0929
606.192	0.09239
606.524	0.09174
606.857	0.09113
607.19	0.09054
607.522	0.08988
607.855	0.08931
608.187	0.0887
608.52	0.08815
608.852	0.08765
609.184	0.08707
609.517	0.08653
609.849	0.08588
610.181	0.0852
610.513	0.08475
610.845	0.08426
611.177	0.0837
611.509	0.08324
611.841	0.08266
612.173	0.08207
612.505	0.08161
612.837	0.08102
613.169	0.08046
613.5	0.07991
613.832	0.07937
614.164	0.07884
614.495	0.07828
614.827	0.07768
615.158	0.07703
615.49	0.07642
615.821	0.07582
616.152	0.07526
616.484	0.0747
616.815	0.0742
617.146	0.07366
617.477	0.0731
617.808	0.07256
618.14	0.07213
618.471	0.07165
618.802	0.0712
619.133	0.07073
619.463	0.07017
619.794	0.06966
620.125	0.06919
620.456	0.06867
620.787	0.06812
621.117	0.06769
621.448	0.06723
621.778	0.06685
622.109	0.06642
622.439	0.06601
622.77	0.0655
623.1	0.06495
623.43	0.06441
623.761	0.06397
624.091	0.06354
624.421	0.06308
624.751	0.06249
625.081	0.06204
625.412	0.06148
625.742	0.06093
626.072	0.06045
626.401	0.05995
626.731	0.05946
627.061	0.05897
627.391	0.05839
627.721	0.05792
628.05	0.0574
628.38	0.05685
628.71	0.05637
629.039	0.05582
629.369	0.05529
629.698	0.05486
630.028	0.05437
630.357	0.05396
630.686	0.05344
631.015	0.05295
631.345	0.05242
631.674	0.05205
632.003	0.05157
632.332	0.05114
632.661	0.05073
632.99	0.05027
633.319	0.04994
633.648	0.04954
633.977	0.04906
634.306	0.04876
634.634	0.04842
634.963	0.048
635.292	0.04773
635.62	0.04735
635.949	0.04712
636.277	0.04686
636.606	0.04654
636.934	0.04636
637.263	0.0461
637.591	0.04592
637.919	0.0457
638.248	0.0456
638.576	0.04539
638.904	0.04517
639.232	0.04512
639.56	0.04504
639.888	0.04495
640.216	0.04479
640.544	0.04473
640.872	0.04465
641.2	0.04457
641.528	0.04454
641.855	0.04462
642.183	0.04457
642.511	0.04446
642.838	0.04443
643.166	0.04436
643.493	0.04435
643.821	0.04431
644.148	0.04433
644.475	0.04429
644.803	0.04429
645.13	0.04416
645.457	0.04424
645.784	0.04429
646.112	0.04425
646.439	0.04422
646.766	0.04427
647.093	0.04435
647.42	0.04435
647.746	0.04447
648.073	0.04449
648.4	0.04442
648.727	0.04432
649.053	0.04433
649.38	0.04445
649.707	0.04444
650.033	0.04449
650.36	0.04445
650.686	0.04448
651.013	0.04448
651.339	0.04448
651.665	0.04448
651.992	0.04447
652.318	0.04433
652.644	0.04422
652.97	0.04408
653.296	0.04406
653.622	0.04401
653.948	0.04388
654.274	0.04389
654.6	0.04381
654.926	0.04377
655.252	0.04374
655.578	0.04383
655.903	0.04385
656.229	0.04379
656.555	0.04385
656.88	0.04383
657.206	0.04389
657.531	0.04384
657.857	0.04379
658.182	0.04384
658.507	0.04387
658.833	0.04393
659.158	0.04405
659.483	0.04416
659.808	0.04429
660.133	0.04422
660.458	0.04415
660.783	0.04417
661.108	0.04407
661.433	0.04401
661.758	0.04402
662.083	0.04403
662.408	0.04388
662.732	0.04385
663.057	0.04379
663.382	0.04371
663.706	0.04367
664.031	0.0436
664.355	0.0436
664.68	0.04359
665.004	0.04352
665.328	0.04342
665.653	0.04335
665.977	0.04324
666.301	0.04322
666.625	0.04308
666.949	0.0431
667.273	0.04309
667.597	0.0431
667.921	0.04305
668.245	0.04304
668.569	0.04295
668.893	0.04292
669.217	0.04292
669.54	0.04286
669.864	0.04284
670.188	0.04275
670.511	0.04265
670.835	0.0426
671.158	0.04233
671.482	0.04223
671.805	0.0422
672.128	0.04216
672.452	0.04214
672.775	0.04199
673.098	0.0418
673.421	0.04176
673.744	0.04162
674.068	0.0415
674.391	0.04136
674.714	0.04137
675.036	0.04124
675.359	0.04127
675.682	0.0411
676.005	0.04101
676.328	0.04084
676.65	0.04073
676.973	0.04066
677.295	0.04059
677.618	0.04052
677.94	0.04054
678.263	0.04051
678.585	0.04039
678.908	0.04022
679.23	0.04008
679.552	0.04017
679.874	0.04013
680.196	0.04
680.519	0.03993
680.841	0.03987
681.163	0.03975
681.485	0.0396
681.807	0.03955
682.128	0.0394
682.45	0.0394
682.772	0.03929
683.094	0.03918
683.415	0.03908
683.737	0.03905
684.059	0.03896
684.38	0.03882
684.702	0.03873
685.023	0.03866
685.344	0.03857
685.666	0.03855
685.987	0.03849
686.308	0.03839
686.629	0.03839
686.95	0.03836
687.272	0.03837
687.593	0.03828
687.914	0.03829
688.235	0.0382
688.555	0.03813
688.876	0.03801
689.197	0.03795
689.518	0.03792
689.839	0.03788
690.159	0.0378
690.48	0.03773
690.8	0.03771
691.121	0.03776
691.441	0.03775
691.762	0.03764
692.082	0.03766
692.402	0.03757
692.723	0.03746
693.043	0.0373
693.363	0.03722
693.683	0.03718
694.003	0.03703
694.323	0.03695
694.643	0.03678
694.963	0.03672
695.283	0.03667
695.603	0.0367
695.923	0.03664
696.243	0.0366
696.562	0.03655
696.882	0.03653
697.202	0.03638
697.521	0.03625
697.841	0.03615
698.16	0.03604
698.479	0.036
698.799	0.03584
699.118	0.03586
699.437	0.03581
699.757	0.03576
700.076	0.03559
700.395	0.03551
700.714	0.03547
701.033	0.03537
701.352	0.03541
701.671	0.03526
701.99	0.03517
702.308	0.03505
702.627	0.03493
702.946	0.03485
703.265	0.03478
703.583	0.03465
703.902	0.03464
704.22	0.03453
704.539	0.03435
704.857	0.03434
705.176	0.03422
705.494	0.03405
705.812	0.03394
706.131	0.03394
706.449	0.03389
706.767	0.03396
707.085	0.03387
707.403	0.03389
707.721	0.03404
708.039	0.03388
708.357	0.03396
708.675	0.03391
708.993	0.03379
709.31	0.03365
709.628	0.03363
709.946	0.03355
710.263	0.03353
710.581	0.0335
710.898	0.03356
711.216	0.03371
711.533	0.0337
711.851	0.0337
712.168	0.03374
712.485	0.03369
712.802	0.03359
713.12	0.03352
713.437	0.03352
713.754	0.03346
714.071	0.03332
714.388	0.03315
714.705	0.03311
715.022	0.03305
715.338	0.03304
715.655	0.03294
715.972	0.03299
716.289	0.03288
716.605	0.03288
716.922	0.03285
717.238	0.03275
717.555	0.03263
717.871	0.03252
718.188	0.03244
718.504	0.0324
718.82	0.03245
719.136	0.03251
719.453	0.03247
719.769	0.03244
720.085	0.03234
720.401	0.03225
720.717	0.03224
721.033	0.03216
721.349	0.03218
721.665	0.03204
721.98	0.032
722.296	0.03207
722.612	0.03202
722.927	0.03199
723.243	0.03197
723.559	0.03183
723.874	0.03186
724.19	0.03185
724.505	0.03165
724.82	0.03158
725.136	0.03156
725.451	0.03139
725.766	0.03128
726.081	0.03129
726.396	0.03127
726.711	0.0311
727.026	0.03107
727.341	0.03113
727.656	0.0311
727.971	0.03101
728.286	0.03108
728.601	0.03106
728.916	0.03095
729.23	0.03087
729.545	0.03081
729.859	0.03063
730.174	0.03059
730.488	0.03056
730.803	0.03057
731.117	0.03074
731.431	0.0306
731.746	0.03039
732.06	0.03035
732.374	0.03018
732.688	0.03005
733.002	0.02993
733.316	0.02982
733.63	0.02989
733.944	0.02978
734.258	0.02981
734.572	0.02977
734.886	0.02958
735.199	0.02932
735.513	0.02929
735.827	0.02923
736.14	0.02917
736.454	0.02913
736.767	0.02917
737.081	0.02894
737.394	0.02876
737.708	0.02843
738.021	0.02839
738.334	0.02847
738.647	0.02847
738.96	0.0284
739.273	0.02825
739.587	0.02815
739.9	0.0282
740.212	0.02799
740.525	0.02793
740.838	0.0278
741.151	0.02767
741.464	0.02772
741.776	0.02776
742.089	0.02767
742.402	0.02762
742.714	0.02751
743.027	0.02744
743.339	0.0274
743.651	0.02734
743.964	0.02728
744.276	0.02735
744.588	0.02741
744.901	0.02735
745.213	0.02708
745.525	0.02718
745.837	0.0272
746.149	0.02732
746.461	0.02722
746.773	0.02703
747.085	0.02697
747.396	0.02702
747.708	0.02704
748.02	0.02706
748.331	0.02701
748.643	0.02695
748.955	0.02684
749.266	0.02678
749.577	0.02665
749.889	0.02647
750.2	0.02643
750.512	0.02631
750.823	0.02618
751.134	0.02612
751.445	0.02594
751.756	0.02604
752.067	0.02596
752.378	0.02596
752.689	0.02582
753	0.02579
753.311	0.02597
753.622	0.02591
753.932	0.0257
754.243	0.02558
754.554	0.02553
754.864	0.0255
755.175	0.02552
755.485	0.02542
755.796	0.02552
756.106	0.02569
756.417	0.0257
756.727	0.02576
757.037	0.02595
757.347	0.02595
757.658	0.0259
757.968	0.02605
758.278	0.02593
758.588	0.02578
758.898	0.0258
759.208	0.02575
759.517	0.0258
759.827	0.02556
760.137	0.02542
760.447	0.02534
760.756	0.02534
761.066	0.02516
761.375	0.02488
761.685	0.02485
761.994	0.02486
762.304	0.02466
762.613	0.02445
762.922	0.02439
763.232	0.02429
763.541	0.02406
763.85	0.02412
764.159	0.02392
764.468	0.02363
764.777	0.02363
765.086	0.0236
765.395	0.02334
765.704	0.02318
766.013	0.02303
766.321	0.02306
766.63	0.02319
766.939	0.0231
767.247	0.02301
767.556	0.02295
767.864	0.02297
768.173	0.02291
768.481	0.02279
768.789	0.02283
769.098	0.02268
769.406	0.02248
769.714	0.02251
770.022	0.02251
770.33	0.02235
770.638	0.02245
770.946	0.02243
771.254	0.02223
771.562	0.02211
771.87	0.02225
772.178	0.02217
772.486	0.02212
772.793	0.02194
773.101	0.02165
773.408	0.02156
773.716	0.02151
774.023	0.02138
774.331	0.02128
774.638	0.02112
774.946	0.02106
775.253	0.02077
775.56	0.02057
775.867	0.02067
776.174	0.02053
776.481	0.02036
776.788	0.02007
777.095	0.01989
777.402	0.01997
777.709	0.02015
778.016	0.02002
778.323	0.01979
778.63	0.01956
778.936	0.01936
779.243	0.01937
779.549	0.01937
779.856	0.01937
780.162	0.01913
780.469	0.01906
780.775	0.01904
781.082	0.01903
781.388	0.01886
781.694	0.0189
782	0.01915
782.306	0.01915
782.612	0.01903
782.918	0.01891
783.224	0.01891
783.53	0.0187
783.836	0.01848
784.142	0.01808
784.448	0.01783
784.753	0.01766
785.059	0.01765
785.365	0.01752
785.67	0.01748
785.976	0.01714
786.281	0.01707
786.586	0.01715
786.892	0.01715
787.197	0.017
787.502	0.01684
787.808	0.01677
788.113	0.01662
788.418	0.01637
788.723	0.01612
789.028	0.01597
789.333	0.01587
789.638	0.01583
789.942	0.01569
790.247	0.01555
790.552	0.01584
790.857	0.01604
791.161	0.01589
791.466	0.01593
791.77	0.01595
792.075	0.01599
792.379	0.01589
792.684	0.01558
792.988	0.01562
793.292	0.01552
793.597	0.0156
793.901	0.0156
794.205	0.01575
794.509	0.01573
794.813	0.01547
795.117	0.0151
795.421	0.01511
795.725	0.01517
796.029	0.01521
796.332	0.0153
796.636	0.01527
796.94	0.01467
797.243	0.01455
797.547	0.01468
797.85	0.01452
798.154	0.01457
798.457	0.01432
798.761	0.01429
799.064	0.01426
799.367	0.01415
799.67	0.01406
799.973	0.01389
800.277	0.01394
800.58	0.0137
800.883	0.01361
801.186	0.01372
801.488	0.01397
801.791	0.01372
802.094	0.01338
802.397	0.01323
802.699	0.01296
803.002	0.01298
803.305	0.01328
803.607	0.01316
803.91	0.01296
804.212	0.01299
804.515	0.0129
804.817	0.01277
805.119	0.01255
805.421	0.01263
805.724	0.0122
806.026	0.01202
806.328	0.01186
806.63	0.01146
806.932	0.0114
807.234	0.01122
807.535	0.01142
807.837	0.01148
808.139	0.01137
808.441	0.01179
808.742	0.0117
809.044	0.01166
809.346	0.01147
809.647	0.01097
809.948	0.01089
810.25	0.01071
810.551	0.01039
810.853	0.00995
811.154	0.00958
811.455	0.0098
811.756	0.00962
812.057	0.00945
812.358	0.00942
812.659	0.00947
812.96	0.00939
813.261	0.00904
813.562	0.00919
813.863	0.00909
814.163	0.00867
814.464	0.00846
814.765	0.00794
815.065	0.00753
815.366	0.00765
815.666	0.00771
815.967	0.00791
816.267	0.00762
816.567	0.00761
816.868	0.0077
817.168	0.00764
817.468	0.00783
817.768	0.00772
818.068	0.00772
818.368	0.00812
818.668	0.00784
818.968	0.00764
819.268	0.00768
819.568	0.00782
819.867	0.00787
820.167	0.00761
820.467	0.00768
820.766	0.00744
821.066	0.00728
821.365	0.00737
821.665	0.00722
821.964	0.00701
822.263	0.00701
822.563	0.0072
822.862	0.00736
823.161	0.00703
823.46	0.00693
823.759	0.00691
824.058	0.00689
824.357	0.00647
824.656	0.00613
824.955	0.00644
825.254	0.00655
825.552	0.00624
825.851	0.00646
826.15	0.00636
826.448	0.00567
826.747	0.0058
827.045	0.00574
827.344	0.0055
827.642	0.00521
827.941	0.00521
828.239	0.00533
828.537	0.00523
828.835	0.00492
829.133	0.0047
829.432	0.00502
829.73	0.00524
830.028	0.00536
830.325	0.00507
830.623	0.00563
830.921	0.00545
831.219	0.00509
831.517	0.0049
831.814	0.00509
832.112	0.00501
832.409	0.00432
832.707	0.00472
833.004	0.00433
833.302	0.00515
833.599	0.00515
833.896	0.00563
834.194	0.00527
834.491	0.00476
834.788	0.00442
835.085	0.00485
835.382	0.0043
835.679	0.00363
835.976	0.00336
836.273	0.0034
836.57	0.0038
836.866	0.00352
837.163	0.00349
837.46	0.00361
837.756	0.00352
838.053	0.00369
838.349	0.00375
838.646	0.00439
838.942	0.0049
839.239	0.00515
839.535	0.00462
839.831	0.00529
840.127	0.00542
840.423	0.00633
840.72	0.00649
841.016	0.00714
841.312	0.00695
841.607	0.00794
841.903	0.00857
842.199	0.00894
842.495	0.00825
842.791	0.00791
843.086	0.00829
843.382	0.00854
843.677	0.00899
843.973	0.00907
844.268	0.00899
844.564	0.00894
844.859	0.00893
845.154	0.00882
845.45	0.00876
845.745	0.00915
846.04	0.00967
846.335	0.00982
846.63	0.00923
846.925	0.01058
847.22	0.01056
847.515	0.00982
847.81	0.00962
848.104	0.01106
848.399	0.01149
848.694	0.0123
848.988	0.01377
849.283	0.01268
849.578	0.01285
849.872	0.01255
850.166	0.01332
850.461	0.01431
850.755	0.01579
851.049	0.01644
851.343	0.01737
851.638	0.01773
851.932	0.0184
852.226	0.01996
852.52	0.02226
852.814	0.02266
853.107	0.02104
853.401	0.02126
853.695	0.02402
853.989	0.02414
854.282	0.02374
854.576	0.02578
854.869	0.02838
855.163	0.02941
855.456	0.03027
855.75	0.03068
856.043	0.03211
856.336	0.03419
856.63	0.03302
856.923	0.03185
857.216	0.03194
857.509	0.03255
857.802	0.03332
858.095	0.03607
858.388	0.03475
858.681	0.03415
858.974	0.03483
859.266	0.03583
859.559	0.03731
859.852	0.038
860.144	0.03886
860.437	0.04123
860.729	0.04203
861.022	0.04006
861.314	0.03833
861.606	0.04047
861.899	0.04115
862.191	0.04029
862.483	0.03991
862.775	0.04237
863.067	0.04532
863.359	0.04518
863.651	0.04608
863.943	0.04485
864.235	0.04207
864.527	0.04182
864.819	0.04358
865.11	0.04649
865.402	0.04733
865.693	0.04677
865.985	0.04577
866.276	0.0467
866.568	0.04559
866.859	0.0432
867.151	0.04278
867.442	0.04385
867.733	0.0447
868.024	0.04742
868.315	0.04888
868.606	0.051
868.897	0.05118
869.188	0.04951
869.479	0.05134
869.77	0.05202
870.061	0.05427
870.351	0.05649
870.642	0.05787
870.933	0.05538
871.223	0.05351
871.514	0.05402
871.804	0.05514
872.095	0.0563
872.385	0.05767
872.675	0.05856
