Data from AuNP_532nm_50mJ_30min_Absorbance_13-25-14-641.txt Node
Date: Mon Jan 23 13:25:14 EST 2023
User: UV-vis
Spectrometer: FLMS04918
Trigger mode: 0
Integration Time (sec): 1.002000E-2
Scans to average: 10
Electric dark correction enabled: true
Nonlinearity correction enabled: false
Boxcar width: 10
XAxis mode: Wavelengths
Number of Pixels in Spectrum: 2048
>>>>>Begin Spectral Data<<<<<
179.23	-0.00542
179.611	0.05115
179.992	-0.00596
180.373	0.0344
180.754	-0.03128
181.134	-0.10902
181.515	-0.22165
181.896	-0.22886
182.276	-0.18747
182.657	-0.30868
183.038	-0.25484
183.418	-0.45476
183.799	-0
184.179	0.04615
184.56	-0.01032
184.94	-0.02396
185.32	-0.02348
185.701	-0.02168
186.081	-0.02171
186.461	-0.02323
186.842	-0.02722
187.222	-0.02774
187.602	-0.0282
187.982	-0.02925
188.362	-0.02929
188.742	-0.0309
189.122	-0.03136
189.502	-0.03186
189.882	-0.03276
190.262	-0.03231
190.642	-0.03203
191.022	-0.03164
191.402	-0.03233
191.781	-0.03331
192.161	-0.03443
192.541	-0.03543
192.92	-0.0358
193.3	-0.03635
193.68	-0.03748
194.059	-0.03853
194.439	-0.03915
194.818	-0.03923
195.198	-0.0404
195.577	-0.0417
195.957	-0.04305
196.336	-0.0446
196.715	-0.04532
197.094	-0.04663
197.474	-0.04825
197.853	-0.04863
198.232	-0.05046
198.611	-0.05236
198.99	-0.05418
199.369	-0.05573
199.748	-0.05761
200.127	-0.05909
200.506	-0.06033
200.885	-0.06194
201.264	-0.06393
201.643	-0.06547
202.022	-0.06656
202.401	-0.069
202.779	-0.07058
203.158	-0.07248
203.537	-0.07448
203.915	-0.07632
204.294	-0.07774
204.673	-0.07972
205.051	-0.08183
205.43	-0.08381
205.808	-0.08709
206.187	-0.08999
206.565	-0.09291
206.943	-0.09568
207.322	-0.09884
207.7	-0.10228
208.078	-0.10581
208.456	-0.11031
208.835	-0.11436
209.213	-0.1203
209.591	-0.12753
209.969	-0.13724
210.347	-0.15038
210.725	-0.16929
211.103	-0.19468
211.481	-0.22697
211.859	-0.26635
212.237	-0.31191
212.614	-0.36146
212.992	-0.41378
213.37	-0.46908
213.748	-0.52476
214.125	-0.57963
214.503	-0.63441
214.881	-0.68814
215.258	-0.74006
215.636	-0.78961
216.013	-0.83832
216.391	-0.8838
216.768	-0.92824
217.145	-0.9704
217.523	-1.01217
217.9	-1.0517
218.277	-1.08956
218.655	-1.12539
219.032	-1.15862
219.409	-1.18879
219.786	-1.21695
220.163	-1.24312
220.54	-1.26788
220.917	-1.29069
221.294	-1.31104
221.671	-1.3294
222.048	-1.34605
222.425	-1.36036
222.802	-1.374
223.179	-1.38574
223.556	-1.39601
223.932	-1.40503
224.309	-1.41401
224.686	-1.42172
225.062	-1.42815
225.439	-1.43318
225.815	-1.43767
226.192	-1.44086
226.568	-1.44347
226.945	-1.44544
227.321	-1.4475
227.698	-1.44895
228.074	-1.44964
228.45	-1.44975
228.827	-1.44914
229.203	-1.44882
229.579	-1.44826
229.955	-1.44763
230.331	-1.44721
230.707	-1.4464
231.083	-1.44572
231.46	-1.44583
231.835	-1.44549
232.211	-1.4449
232.587	-1.44429
232.963	-1.44344
233.339	-1.44262
233.715	-1.44212
234.091	-1.44137
234.466	-1.44007
234.842	-1.43936
235.218	-1.43854
235.593	-1.43785
235.969	-1.43655
236.344	-1.43618
236.72	-1.4355
237.095	-1.43462
237.471	-1.43358
237.846	-1.43264
238.222	-1.43167
238.597	-1.43089
238.972	-1.42965
239.348	-1.42818
239.723	-1.42693
240.098	-1.42531
240.473	-1.42402
240.848	-1.42271
241.223	-1.4213
241.598	-1.4198
241.973	-1.41825
242.348	-1.41709
242.723	-1.41565
243.098	-1.41421
243.473	-1.41253
243.848	-1.41118
244.223	-1.40913
244.597	-1.40744
244.972	-1.40606
245.347	-1.40389
245.721	-1.40219
246.096	-1.40052
246.47	-1.39858
246.845	-1.3967
247.219	-1.39504
247.594	-1.39306
247.968	-1.39107
248.343	-1.38915
248.717	-1.38711
249.091	-1.3848
249.466	-1.38233
249.84	-1.37982
250.214	-1.37782
250.588	-1.37512
250.962	-1.37238
251.336	-1.36987
251.71	-1.36781
252.084	-1.36496
252.458	-1.36259
252.832	-1.35991
253.206	-1.35768
253.58	-1.35483
253.954	-1.3523
254.328	-1.34919
254.702	-1.34665
255.075	-1.3437
255.449	-1.34114
255.823	-1.33846
256.196	-1.33538
256.57	-1.33297
256.943	-1.33009
257.317	-1.32746
257.69	-1.3253
258.064	-1.32219
258.437	-1.3196
258.81	-1.31707
259.184	-1.31459
259.557	-1.31157
259.93	-1.30944
260.303	-1.30651
260.677	-1.30352
261.05	-1.30071
261.423	-1.29838
261.796	-1.29512
262.169	-1.2926
262.542	-1.28938
262.915	-1.28593
263.288	-1.28291
263.661	-1.27966
264.033	-1.27674
264.406	-1.27339
264.779	-1.27018
265.152	-1.26681
265.524	-1.26284
265.897	-1.25923
266.27	-1.25565
266.642	-1.25183
267.015	-1.24758
267.387	-1.24374
267.76	-1.23946
268.132	-1.23571
268.504	-1.23172
268.877	-1.22786
269.249	-1.2233
269.621	-1.21882
269.994	-1.21408
270.366	-1.20917
270.738	-1.20479
271.11	-1.19977
271.482	-1.19461
271.854	-1.18922
272.226	-1.18393
272.598	-1.17877
272.97	-1.17286
273.342	-1.16687
273.714	-1.16082
274.086	-1.15429
274.458	-1.14755
274.829	-1.14051
275.201	-1.13297
275.573	-1.12494
275.944	-1.11651
276.316	-1.10791
276.688	-1.09804
277.059	-1.08758
277.431	-1.07479
277.802	-1.05823
278.173	-1.03519
278.545	-1.00051
278.916	-0.95124
279.287	-0.88436
279.659	-0.80099
280.03	-0.70953
280.401	-0.62511
280.772	-0.55468
281.143	-0.49418
281.515	-0.44116
281.886	-0.39399
282.257	-0.35155
282.628	-0.313
282.998	-0.27767
283.369	-0.24511
283.74	-0.21489
284.111	-0.18671
284.482	-0.16042
284.853	-0.13577
285.223	-0.11277
285.594	-0.09139
285.965	-0.07183
286.335	-0.05453
286.706	-0.03997
287.076	-0.02898
287.447	-0.02238
287.817	-0.02017
288.188	-0.02017
288.558	-0.02017
288.928	-0.02017
289.299	-0.02017
289.669	-0.02017
290.039	-0.02017
290.409	-0.02017
290.779	-0.02017
291.149	-0.02017
291.52	-0.02017
291.89	-0.02017
292.26	-0.02017
292.629	-0.02017
292.999	-0.02017
293.369	-0.02017
293.739	-0.02017
294.109	-0.02017
294.479	-0.02017
294.848	-0.02017
295.218	-0.02017
295.588	-0.02017
295.957	-0.02017
296.327	-0.02017
296.696	-0.02017
297.066	-0.02017
297.435	-0.02017
297.805	-0.02017
298.174	-0.02017
298.544	-0.02017
298.913	-0.02017
299.282	-0.02017
299.651	-0.02017
300.021	-0.02017
300.39	-0.02017
300.759	-0.02017
301.128	-0.02017
301.497	-0.02017
301.866	-0.02017
302.235	-0.02017
302.604	-0.02017
302.973	-0.02017
303.342	-0.02017
303.71	-0.02017
304.079	-0.02017
304.448	-0.02017
304.817	-0.02017
305.185	-0.02017
305.554	-0.02017
305.923	-0.02017
306.291	-0.02017
306.66	-0.02017
307.028	-0.02017
307.397	-0.02017
307.765	-0.02017
308.133	-0.02017
308.502	-0.02017
308.87	-0.02017
309.238	-0.02017
309.606	-0.02017
309.975	-0.02017
310.343	-0.02017
310.711	-0.02017
311.079	-0.02017
311.447	-0.02017
311.815	-0.02017
312.183	-0.02017
312.551	-0.02017
312.919	-0.02017
313.286	-0.02017
313.654	-0.02017
314.022	-0.02017
314.39	-0.02017
314.757	-0.02017
315.125	-0.02017
315.492	-0.02017
315.86	-0.02017
316.228	-0.02017
316.595	-0.02017
316.962	-0.02017
317.33	-0.02017
317.697	-0.02017
318.065	-0.02017
318.432	-0.02017
318.799	-0.02017
319.166	-0.02017
319.534	-0.02017
319.901	-0.02017
320.268	-0.02017
320.635	-0.02017
321.002	-0.02017
321.369	-0.02017
321.736	-0.02017
322.103	-0.02017
322.47	-0.02017
322.836	-0.02017
323.203	-0.02017
323.57	-0.02017
323.937	-0.02017
324.303	-0.02017
324.67	-0.02017
325.037	-0.02017
325.403	-0.02017
325.77	-0.02017
326.136	-0.02017
326.503	-0.02017
326.869	-0.02017
327.235	-0.02017
327.602	-0.02017
327.968	-0.02017
328.334	-0.02017
328.7	-0.02017
329.067	-0.02017
329.433	-0.02017
329.799	-0.02017
330.165	-0.02017
330.531	-0.02017
330.897	-0.02017
331.263	-0.02017
331.629	-0.02017
331.995	-0.02017
332.36	-0.02017
332.726	-0.02017
333.092	-0.02017
333.458	-0.02017
333.823	-0.02017
334.189	-0.02017
334.554	-0.02017
334.92	-0.02017
335.286	-0.02017
335.651	-0.02017
336.016	-0.02017
336.382	-0.02017
336.747	-0.02017
337.113	-0.02017
337.478	-0.02017
337.843	-0.02017
338.208	-0.02017
338.573	-0.02017
338.939	-0.02017
339.304	-0.02017
339.669	-0.02017
340.034	-0.02017
340.399	-0.02017
340.764	-0.02017
341.129	-0.02017
341.493	-0.02017
341.858	-0.02017
342.223	-0.02017
342.588	-0.02017
342.952	-0.02017
343.317	-0.02017
343.682	-0.02017
344.046	-0.02017
344.411	-0.02017
344.775	-0.02017
345.14	-0.02017
345.504	-0.02017
345.869	-0.02017
346.233	-0.02017
346.597	-0.02017
346.962	-0.02017
347.326	-0.02017
347.69	-0.02017
348.054	-0.02017
348.418	-0.02017
348.782	-0.02017
349.146	-0.02017
349.51	-0.02017
349.874	-0.02017
350.238	-0.02017
350.602	-0.02017
350.966	-0.02017
351.33	-0.02017
351.693	-0.02017
352.057	-0.02017
352.421	-0.02017
352.784	-0.02017
353.148	-0.02017
353.512	-0.02017
353.875	-0.02017
354.239	-0.02017
354.602	-0.02017
354.966	-0.02017
355.329	-0.02017
355.692	-0.02017
356.056	-0.02017
356.419	-0.02017
356.782	-0.02017
357.145	-0.02017
357.508	-0.02017
357.871	-0.02017
358.234	-0.02017
358.597	-0.02017
358.96	-0.02017
359.323	-0.02017
359.686	-0.02017
360.049	-0.02017
360.412	-0.02017
360.775	-0.02017
361.137	-0.02017
361.5	-0.02017
361.863	-0.02017
362.225	-0.02017
362.588	-0.02017
362.951	-0.02017
363.313	-0.02017
363.675	-0.02017
364.038	-0.02017
364.4	-0.02017
364.763	-0.02017
365.125	-0.02017
365.487	-0.02017
365.849	-0.02017
366.212	-0.02017
366.574	-0.02017
366.936	-0.02017
367.298	-0.02017
367.66	-0.02017
368.022	-0.02017
368.384	-0.02017
368.746	-0.02017
369.108	-0.02017
369.469	-0.02017
369.831	-0.02017
370.193	-0.02017
370.555	-0.02017
370.916	-0.02017
371.278	-0.02017
371.64	-0.02017
372.001	-0.02017
372.363	-0.02017
372.724	-0.02017
373.086	-0.02017
373.447	-0.02017
373.808	-0.02017
374.17	-0.02017
374.531	-0.02017
374.892	-0.02017
375.253	-0.02017
375.615	-0.02017
375.976	-0.02017
376.337	-0.02017
376.698	-0.02017
377.059	-0.02017
377.42	-0.02017
377.781	-0.02017
378.141	-0.02017
378.502	-0.02017
378.863	-0.02017
379.224	-0.02017
379.585	-0.02017
379.945	-0.02017
380.306	-0.02017
380.666	-0.02017
381.027	-0.02017
381.388	-0.02017
381.748	-0.02017
382.108	-0.02017
382.469	-0.02017
382.829	-0.02017
383.19	-0.02017
383.55	-0.02017
383.91	-0.02017
384.27	-0.02017
384.63	-0.02017
384.991	-0.02017
385.351	-0.02017
385.711	-0.02017
386.071	-0.02017
386.431	-0.02017
386.791	-0.02017
387.15	-0.02017
387.51	-0.02017
387.87	-0.02017
388.23	-0.02017
388.589	-0.02017
388.949	-0.02017
389.309	-0.02017
389.668	-0.02017
390.028	-0.02017
390.387	-0.02017
390.747	-0.02017
391.106	-0.02017
391.466	-0.02017
391.825	-0.02017
392.184	-0.02017
392.544	-0.02017
392.903	-0.02017
393.262	-0.02017
393.621	-0.02017
393.98	-0.02017
394.339	-0.02017
394.698	-0.02017
395.057	-0.02017
395.416	-0.02017
395.775	-0.02017
396.134	-0.02017
396.493	-0.02017
396.852	-0.02017
397.211	-0.02017
397.569	-0.02017
397.928	-0.02017
398.287	-0.02017
398.645	-0.02017
399.004	-0.02017
399.362	-0.02017
399.721	-0.02017
400.079	-0.02017
400.438	-0.02017
400.796	-0.02017
401.154	-0.02017
401.512	-0.02017
401.871	-0.02017
402.229	-0.02017
402.587	-0.02017
402.945	-0.02017
403.303	-0.02017
403.661	-0.02017
404.019	-0.02017
404.377	-0.02017
404.735	-0.02017
405.093	-0.02017
405.451	-0.02017
405.808	-0.02017
406.166	-0.02017
406.524	-0.02017
406.882	-0.02017
407.239	-0.02017
407.597	-0.02017
407.954	-0.02017
408.312	-0.02017
408.669	-0.02017
409.027	-0.02017
409.384	-0.02017
409.741	-0.02017
410.099	-0.02017
410.456	-0.02017
410.813	-0.02017
411.17	-0.02017
411.527	-0.02017
411.884	-0.02017
412.242	-0.02017
412.599	-0.02017
412.956	-0.02017
413.312	-0.02017
413.669	-0.02017
414.026	-0.02017
414.383	-0.02017
414.74	-0.02017
415.096	-0.02017
415.453	-0.02017
415.81	-0.02017
416.166	-0.02018
416.523	-0.02018
416.879	-0.02018
417.236	-0.02018
417.592	-0.02018
417.949	-0.02018
418.305	-0.02018
418.661	-0.02018
419.018	-0.02018
419.374	-0.02018
419.73	-0.02017
420.086	-0.02017
420.442	-0.02017
420.798	-0.02017
421.154	-0.02017
421.51	-0.02017
421.866	-0.02017
422.222	-0.01995
422.578	-0.01916
422.934	-0.01768
423.29	-0.0158
423.646	-0.01346
424.001	-0.01056
424.357	-0.00688
424.713	-0.00286
425.068	0.00148
425.424	0.00597
425.779	0.0104
426.135	0.01444
426.49	0.01829
426.845	0.0225
427.201	0.02677
427.556	0.03173
427.911	0.03683
428.266	0.04248
428.622	0.04839
428.977	0.05433
429.332	0.05976
429.687	0.06463
430.042	0.06796
430.397	0.07041
430.752	0.07288
431.107	0.07477
431.461	0.07578
431.816	0.07583
432.171	0.07549
432.526	0.07473
432.88	0.07415
433.235	0.07405
433.59	0.07443
433.944	0.07555
434.299	0.0768
434.653	0.07842
435.008	0.07957
435.362	0.08132
435.716	0.08295
436.071	0.08499
436.425	0.08752
436.779	0.09075
437.133	0.09476
437.487	0.09974
437.841	0.10508
438.195	0.11007
438.549	0.11521
438.903	0.12084
439.257	0.12673
439.611	0.13262
439.965	0.13867
440.319	0.14475
440.673	0.15032
441.026	0.15609
441.38	0.16135
441.734	0.16585
442.087	0.16997
442.441	0.17366
442.794	0.17626
443.148	0.17837
443.501	0.17971
443.855	0.18018
444.208	0.18017
444.561	0.17929
444.915	0.17794
445.268	0.1764
445.621	0.17437
445.974	0.17218
446.327	0.16944
446.68	0.16614
447.033	0.16275
447.386	0.15963
447.739	0.15603
448.092	0.1527
448.445	0.14907
448.798	0.14561
449.15	0.14247
449.503	0.13925
449.856	0.13599
450.209	0.13331
450.561	0.13068
450.914	0.12791
451.266	0.12571
451.619	0.12393
451.971	0.12271
452.323	0.12173
452.676	0.12081
453.028	0.12052
453.38	0.11997
453.733	0.11967
454.085	0.11965
454.437	0.12063
454.789	0.12104
455.141	0.12163
455.493	0.12229
455.845	0.12285
456.197	0.12338
456.549	0.12415
456.901	0.12488
457.253	0.12573
457.604	0.12639
457.956	0.12716
458.308	0.12798
458.659	0.12886
459.011	0.12947
459.362	0.12994
459.714	0.13078
460.065	0.13122
460.417	0.13153
460.768	0.13216
461.12	0.13262
461.471	0.13336
461.822	0.13322
462.173	0.13359
462.525	0.13346
462.876	0.13341
463.227	0.13395
463.578	0.1342
463.929	0.13433
464.28	0.1345
464.631	0.13445
464.982	0.13431
465.332	0.13421
465.683	0.13406
466.034	0.13368
466.385	0.13335
466.735	0.13292
467.086	0.13234
467.437	0.13208
467.787	0.13141
468.138	0.13071
468.488	0.13019
468.839	0.12983
469.189	0.12903
469.539	0.12813
469.89	0.12766
470.24	0.12689
470.59	0.12598
470.94	0.12503
471.29	0.12344
471.64	0.12223
471.99	0.12088
472.34	0.11914
472.69	0.11733
473.04	0.11575
473.39	0.11397
473.74	0.11231
474.09	0.11008
474.439	0.10805
474.789	0.10547
475.139	0.10326
475.488	0.10061
475.838	0.09818
476.188	0.09495
476.537	0.09199
476.886	0.08912
477.236	0.08612
477.585	0.08313
477.935	0.07983
478.284	0.07682
478.633	0.074
478.982	0.07085
479.331	0.06791
479.68	0.06527
480.03	0.06246
480.379	0.05939
480.728	0.05638
481.076	0.05344
481.425	0.05089
481.774	0.0479
482.123	0.04521
482.472	0.04232
482.821	0.03998
483.169	0.0374
483.518	0.03532
483.866	0.03338
484.215	0.0315
484.563	0.02967
484.912	0.02803
485.26	0.0265
485.609	0.02497
485.957	0.02364
486.305	0.02242
486.654	0.0213
487.002	0.02022
487.35	0.01927
487.698	0.01852
488.046	0.0178
488.394	0.01706
488.742	0.01643
489.09	0.01611
489.438	0.01594
489.786	0.01582
490.134	0.01564
490.482	0.01554
490.829	0.01549
491.177	0.01541
491.525	0.01529
491.872	0.01533
492.22	0.01528
492.567	0.0153
492.915	0.01534
493.262	0.01535
493.61	0.01533
493.957	0.01539
494.304	0.01545
494.652	0.01543
494.999	0.01543
495.346	0.01538
495.693	0.01534
496.04	0.01545
496.387	0.01539
496.734	0.01529
497.081	0.01517
497.428	0.01511
497.775	0.01497
498.122	0.01471
498.469	0.01458
498.816	0.01431
499.162	0.01408
499.509	0.01375
499.856	0.01333
500.202	0.0129
500.549	0.01248
500.895	0.01197
501.242	0.01144
501.588	0.01078
501.935	0.01018
502.281	0.00952
502.627	0.00886
502.973	0.00818
503.32	0.0073
503.666	0.00653
504.012	0.00573
504.358	0.00495
504.704	0.00396
505.05	0.00307
505.396	0.00213
505.742	0.00108
506.088	0.00008
506.433	-0.00101
506.779	-0.00205
507.125	-0.00308
507.471	-0.00412
507.816	-0.00523
508.162	-0.00637
508.507	-0.00746
508.853	-0.00853
509.198	-0.00963
509.544	-0.01066
509.889	-0.01163
510.234	-0.01259
510.58	-0.01345
510.925	-0.01428
511.27	-0.01508
511.615	-0.01584
511.96	-0.01647
512.306	-0.0171
512.651	-0.01766
512.996	-0.01813
513.341	-0.01856
513.685	-0.01896
514.03	-0.01931
514.375	-0.01956
514.72	-0.01982
515.065	-0.02
515.409	-0.02007
515.754	-0.02016
516.099	-0.02017
516.443	-0.02017
516.788	-0.02017
517.132	-0.02017
517.476	-0.02017
517.821	-0.02017
518.165	-0.02017
518.51	-0.02017
518.854	-0.02017
519.198	-0.02017
519.542	-0.02017
519.886	-0.02017
520.23	-0.02017
520.574	-0.02017
520.918	-0.02017
521.262	-0.02017
521.606	-0.02017
521.95	-0.02017
522.294	-0.02017
522.638	-0.02017
522.981	-0.02017
523.325	-0.02017
523.669	-0.02017
524.012	-0.02018
524.356	-0.02018
524.699	-0.02018
525.043	-0.02018
525.386	-0.02018
525.73	-0.02018
526.073	-0.02018
526.416	-0.02018
526.76	-0.02018
527.103	-0.02018
527.446	-0.02018
527.789	-0.02017
528.132	-0.02017
528.475	-0.02017
528.818	-0.02017
529.161	-0.02018
529.504	-0.02017
529.847	-0.02017
530.19	-0.02017
530.532	-0.02017
530.875	-0.02017
531.218	-0.02017
531.56	-0.02017
531.903	-0.02017
532.246	-0.02017
532.588	-0.02017
532.93	-0.02017
533.273	-0.02017
533.615	-0.02017
533.958	-0.02017
534.3	-0.02017
534.642	-0.02017
534.984	-0.02017
535.326	-0.02017
535.669	-0.02017
536.011	-0.02017
536.353	-0.02017
536.695	-0.02017
537.037	-0.02017
537.378	-0.02017
537.72	-0.02017
538.062	-0.02017
538.404	-0.02017
538.746	-0.02017
539.087	-0.02017
539.429	-0.02017
539.77	-0.02017
540.112	-0.02017
540.454	-0.02017
540.795	-0.02017
541.136	-0.02017
541.478	-0.02017
541.819	-0.02017
542.16	-0.02017
542.502	-0.02017
542.843	-0.02017
543.184	-0.02017
543.525	-0.02017
543.866	-0.02017
544.207	-0.02017
544.548	-0.02017
544.889	-0.02017
545.23	-0.02017
545.571	-0.02017
545.911	-0.02017
546.252	-0.02017
546.593	-0.02017
546.934	-0.02017
547.274	-0.02017
547.615	-0.02017
547.955	-0.02017
548.296	-0.02017
548.636	-0.02017
548.977	-0.02017
549.317	-0.02017
549.657	-0.02017
549.997	-0.02017
550.338	-0.02017
550.678	-0.02017
551.018	-0.02017
551.358	-0.02017
551.698	-0.02017
552.038	-0.02017
552.378	-0.02017
552.718	-0.02017
553.058	-0.02017
553.398	-0.02017
553.737	-0.02017
554.077	-0.02017
554.417	-0.02017
554.756	-0.02017
555.096	-0.02017
555.435	-0.02017
555.775	-0.02017
556.114	-0.02017
556.454	-0.02017
556.793	-0.02017
557.133	-0.02017
557.472	-0.02017
557.811	-0.02017
558.15	-0.02017
558.489	-0.02017
558.829	-0.02017
559.168	-0.02017
559.507	-0.02017
559.846	-0.02017
560.184	-0.02017
560.523	-0.02017
560.862	-0.02017
561.201	-0.02017
561.54	-0.02017
561.878	-0.02017
562.217	-0.02017
562.556	-0.02017
562.894	-0.02017
563.233	-0.02017
563.571	-0.02017
563.91	-0.02017
564.248	-0.02017
564.586	-0.02017
564.925	-0.02017
565.263	-0.02017
565.601	-0.02017
565.939	-0.02017
566.277	-0.02017
566.616	-0.02017
566.954	-0.02017
567.292	-0.02017
567.63	-0.02017
567.967	-0.02017
568.305	-0.02017
568.643	-0.02017
568.981	-0.02017
569.319	-0.02017
569.656	-0.02017
569.994	-0.02017
570.331	-0.02017
570.669	-0.02017
571.006	-0.02017
571.344	-0.02017
571.681	-0.02017
572.019	-0.02017
572.356	-0.02017
572.693	-0.02017
573.03	-0.02017
573.368	-0.02017
573.705	-0.02017
574.042	-0.02017
574.379	-0.02017
574.716	-0.02017
575.053	-0.02017
575.39	-0.02017
575.727	-0.02017
576.063	-0.02017
576.4	-0.02017
576.737	-0.02017
577.074	-0.02017
577.41	-0.02017
577.747	-0.02017
578.083	-0.02017
578.42	-0.02017
578.756	-0.02017
579.093	-0.02017
579.429	-0.02017
579.766	-0.02017
580.102	-0.02017
580.438	-0.02017
580.774	-0.02017
581.11	-0.02017
581.446	-0.02017
581.782	-0.02017
582.119	-0.02017
582.454	-0.02017
582.79	-0.02017
583.126	-0.02017
583.462	-0.02017
583.798	-0.02017
584.134	-0.02017
584.469	-0.02017
584.805	-0.02017
585.141	-0.02017
585.476	-0.02017
585.812	-0.02017
586.147	-0.02017
586.482	-0.02017
586.818	-0.02017
587.153	-0.02017
587.488	-0.02017
587.824	-0.02017
588.159	-0.02017
588.494	-0.02017
588.829	-0.02017
589.164	-0.02017
589.499	-0.02017
589.834	-0.02017
590.169	-0.02017
590.504	-0.02017
590.839	-0.02017
591.174	-0.02017
591.508	-0.02017
591.843	-0.02017
592.178	-0.02017
592.512	-0.02017
592.847	-0.02017
593.181	-0.02017
593.516	-0.02017
593.85	-0.02017
594.185	-0.02017
594.519	-0.02017
594.853	-0.02017
595.187	-0.02017
595.522	-0.02017
595.856	-0.02017
596.19	-0.02017
596.524	-0.02017
596.858	-0.02017
597.192	-0.02017
597.526	-0.02017
597.86	-0.02017
598.194	-0.02017
598.527	-0.02017
598.861	-0.02017
599.195	-0.02017
599.528	-0.02017
599.862	-0.02017
600.196	-0.02017
600.529	-0.02017
600.863	-0.02017
601.196	-0.02017
601.529	-0.02017
601.863	-0.02017
602.196	-0.02017
602.529	-0.02017
602.862	-0.02017
603.196	-0.02017
603.529	-0.02017
603.862	-0.02017
604.195	-0.02017
604.528	-0.02017
604.861	-0.02017
605.193	-0.02017
605.526	-0.02017
605.859	-0.02017
606.192	-0.02017
606.524	-0.02017
606.857	-0.02017
607.19	-0.02017
607.522	-0.02017
607.855	-0.02017
608.187	-0.02017
608.52	-0.02017
608.852	-0.02017
609.184	-0.02017
609.517	-0.02017
609.849	-0.02017
610.181	-0.02017
610.513	-0.02017
610.845	-0.02017
611.177	-0.02017
611.509	-0.02017
611.841	-0.02017
612.173	-0.02017
612.505	-0.02017
612.837	-0.02017
613.169	-0.02017
613.5	-0.02017
613.832	-0.02017
614.164	-0.02017
614.495	-0.02017
614.827	-0.02017
615.158	-0.02017
615.49	-0.02017
615.821	-0.02017
616.152	-0.02017
616.484	-0.02017
616.815	-0.02017
617.146	-0.02017
617.477	-0.02017
617.808	-0.02017
618.14	-0.02017
618.471	-0.02017
618.802	-0.02017
619.133	-0.02017
619.463	-0.02017
619.794	-0.02017
620.125	-0.02017
620.456	-0.02017
620.787	-0.02017
621.117	-0.02017
621.448	-0.02017
621.778	-0.02017
622.109	-0.02017
622.439	-0.02017
622.77	-0.02017
623.1	-0.02017
623.43	-0.02017
623.761	-0.02017
624.091	-0.02017
624.421	-0.02017
624.751	-0.02017
625.081	-0.02017
625.412	-0.02017
625.742	-0.02017
626.072	-0.02017
626.401	-0.02017
626.731	-0.02017
627.061	-0.02017
627.391	-0.02017
627.721	-0.02017
628.05	-0.02017
628.38	-0.02017
628.71	-0.02017
629.039	-0.02017
629.369	-0.02017
629.698	-0.02017
630.028	-0.02017
630.357	-0.02017
630.686	-0.02017
631.015	-0.02017
631.345	-0.02017
631.674	-0.02017
632.003	-0.02017
632.332	-0.02017
632.661	-0.02017
632.99	-0.02017
633.319	-0.02017
633.648	-0.02017
633.977	-0.02017
634.306	-0.02017
634.634	-0.02017
634.963	-0.02017
635.292	-0.02017
635.62	-0.02017
635.949	-0.02017
636.277	-0.02017
636.606	-0.02017
636.934	-0.02017
637.263	-0.02017
637.591	-0.02017
637.919	-0.02017
638.248	-0.02017
638.576	-0.02017
638.904	-0.02017
639.232	-0.02017
639.56	-0.02017
639.888	-0.02017
640.216	-0.02017
640.544	-0.02017
640.872	-0.02017
641.2	-0.02017
641.528	-0.02017
641.855	-0.02017
642.183	-0.02017
642.511	-0.02017
642.838	-0.02017
643.166	-0.02017
643.493	-0.02017
643.821	-0.02017
644.148	-0.02017
644.475	-0.02017
644.803	-0.02017
645.13	-0.02017
645.457	-0.02017
645.784	-0.02017
646.112	-0.02017
646.439	-0.02017
646.766	-0.02017
647.093	-0.02017
647.42	-0.02017
647.746	-0.02017
648.073	-0.02017
648.4	-0.02017
648.727	-0.02017
649.053	-0.02017
649.38	-0.02017
649.707	-0.02017
650.033	-0.02017
650.36	-0.02017
650.686	-0.02017
651.013	-0.02017
651.339	-0.02017
651.665	-0.02017
651.992	-0.02017
652.318	-0.02017
652.644	-0.02017
652.97	-0.02017
653.296	-0.02017
653.622	-0.02017
653.948	-0.02017
654.274	-0.02017
654.6	-0.02017
654.926	-0.02017
655.252	-0.02017
655.578	-0.02017
655.903	-0.02017
656.229	-0.02017
656.555	-0.02017
656.88	-0.02017
657.206	-0.02017
657.531	-0.02017
657.857	-0.02017
658.182	-0.02017
658.507	-0.02017
658.833	-0.02017
659.158	-0.02017
659.483	-0.02017
659.808	-0.02017
660.133	-0.02017
660.458	-0.02017
660.783	-0.02017
661.108	-0.02017
661.433	-0.02017
661.758	-0.02017
662.083	-0.02017
662.408	-0.02017
662.732	-0.02017
663.057	-0.02017
663.382	-0.02017
663.706	-0.02017
664.031	-0.02017
664.355	-0.02017
664.68	-0.02017
665.004	-0.02017
665.328	-0.02017
665.653	-0.02017
665.977	-0.02017
666.301	-0.02017
666.625	-0.02017
666.949	-0.02017
667.273	-0.02017
667.597	-0.02017
667.921	-0.02017
668.245	-0.02017
668.569	-0.02017
668.893	-0.02017
669.217	-0.02017
669.54	-0.02017
669.864	-0.02017
670.188	-0.02017
670.511	-0.02017
670.835	-0.02017
671.158	-0.02017
671.482	-0.02017
671.805	-0.02017
672.128	-0.02017
672.452	-0.02017
672.775	-0.02017
673.098	-0.02017
673.421	-0.02017
673.744	-0.02017
674.068	-0.02017
674.391	-0.02017
674.714	-0.02017
675.036	-0.02017
675.359	-0.02017
675.682	-0.02017
676.005	-0.02017
676.328	-0.02017
676.65	-0.02017
676.973	-0.02017
677.295	-0.02017
677.618	-0.02017
677.94	-0.02017
678.263	-0.02017
678.585	-0.02017
678.908	-0.02017
679.23	-0.02017
679.552	-0.02017
679.874	-0.02017
680.196	-0.02017
680.519	-0.02017
680.841	-0.02017
681.163	-0.02017
681.485	-0.02017
681.807	-0.02017
682.128	-0.02017
682.45	-0.02017
682.772	-0.02017
683.094	-0.02017
683.415	-0.02017
683.737	-0.02017
684.059	-0.02017
684.38	-0.02017
684.702	-0.02017
685.023	-0.02017
685.344	-0.02017
685.666	-0.02017
685.987	-0.02017
686.308	-0.02017
686.629	-0.02017
686.95	-0.02017
687.272	-0.02017
687.593	-0.02017
687.914	-0.02017
688.235	-0.02017
688.555	-0.02017
688.876	-0.02017
689.197	-0.02017
689.518	-0.02017
689.839	-0.02017
690.159	-0.02017
690.48	-0.02017
690.8	-0.02017
691.121	-0.02017
691.441	-0.02017
691.762	-0.02017
692.082	-0.02017
692.402	-0.02017
692.723	-0.02017
693.043	-0.02017
693.363	-0.02017
693.683	-0.02017
694.003	-0.02017
694.323	-0.02017
694.643	-0.02017
694.963	-0.02017
695.283	-0.02017
695.603	-0.02017
695.923	-0.02017
696.243	-0.02017
696.562	-0.02017
696.882	-0.02017
697.202	-0.02017
697.521	-0.02017
697.841	-0.02017
698.16	-0.02017
698.479	-0.02017
698.799	-0.02017
699.118	-0.02017
699.437	-0.02017
699.757	-0.02017
700.076	-0.02017
700.395	-0.02017
700.714	-0.02017
701.033	-0.02017
701.352	-0.02017
701.671	-0.02017
701.99	-0.02017
702.308	-0.02017
702.627	-0.02017
702.946	-0.02017
703.265	-0.02017
703.583	-0.02017
703.902	-0.02017
704.22	-0.02017
704.539	-0.02017
704.857	-0.02017
705.176	-0.02017
705.494	-0.02017
705.812	-0.02017
706.131	-0.02017
706.449	-0.02017
706.767	-0.02017
707.085	-0.02017
707.403	-0.02017
707.721	-0.02017
708.039	-0.02017
708.357	-0.02017
708.675	-0.02017
708.993	-0.02017
709.31	-0.02017
709.628	-0.02017
709.946	-0.02017
710.263	-0.02017
710.581	-0.02017
710.898	-0.02017
711.216	-0.02017
711.533	-0.02017
711.851	-0.02017
712.168	-0.02017
712.485	-0.02017
712.802	-0.02017
713.12	-0.02017
713.437	-0.02017
713.754	-0.02017
714.071	-0.02017
714.388	-0.02017
714.705	-0.02017
715.022	-0.02017
715.338	-0.02017
715.655	-0.02017
715.972	-0.02017
716.289	-0.02017
716.605	-0.02017
716.922	-0.02017
717.238	-0.02017
717.555	-0.02017
717.871	-0.02017
718.188	-0.02017
718.504	-0.02017
718.82	-0.02017
719.136	-0.02017
719.453	-0.02017
719.769	-0.02017
720.085	-0.02017
720.401	-0.02017
720.717	-0.02017
721.033	-0.02017
721.349	-0.02017
721.665	-0.02017
721.98	-0.02017
722.296	-0.02017
722.612	-0.02017
722.927	-0.02017
723.243	-0.02017
723.559	-0.02017
723.874	-0.02014
724.19	-0.02009
724.505	-0.01998
724.82	-0.01983
725.136	-0.01962
725.451	-0.01936
725.766	-0.01903
726.081	-0.01863
726.396	-0.0182
726.711	-0.01773
727.026	-0.01723
727.341	-0.01666
727.656	-0.01599
727.971	-0.01531
728.286	-0.01456
728.601	-0.01376
728.916	-0.01295
729.23	-0.01211
729.545	-0.01117
729.859	-0.01023
730.174	-0.00927
730.488	-0.00827
730.803	-0.00732
731.117	-0.00639
731.431	-0.00545
731.746	-0.00455
732.06	-0.0037
732.374	-0.00291
732.688	-0.00215
733.002	-0.00137
733.316	-0.00063
733.63	0.00009
733.944	0.00074
734.258	0.00134
734.572	0.00186
734.886	0.00237
735.199	0.00286
735.513	0.00329
735.827	0.0039
736.14	0.00427
736.454	0.00472
736.767	0.00517
737.081	0.00558
737.394	0.00605
737.708	0.00654
738.021	0.00704
738.334	0.00761
738.647	0.00821
738.96	0.00885
739.273	0.00939
739.587	0.01001
739.9	0.01066
740.212	0.01127
740.525	0.01196
740.838	0.01255
741.151	0.0133
741.464	0.01404
741.776	0.01493
742.089	0.01571
742.402	0.01643
742.714	0.01736
743.027	0.01821
743.339	0.01906
743.651	0.0199
743.964	0.02067
744.276	0.02146
744.588	0.02219
744.901	0.02285
745.213	0.02353
745.525	0.02413
745.837	0.02482
746.149	0.02545
746.461	0.02603
746.773	0.02669
747.085	0.0273
747.396	0.02798
747.708	0.02851
748.02	0.02906
748.331	0.02948
748.643	0.03009
748.955	0.03056
749.266	0.03099
749.577	0.03147
749.889	0.03193
750.2	0.03244
750.512	0.03297
750.823	0.03346
751.134	0.03403
751.445	0.03457
751.756	0.0351
752.067	0.03569
752.378	0.03627
752.689	0.03686
753	0.03748
753.311	0.0381
753.622	0.03866
753.932	0.0393
754.243	0.04002
754.554	0.04069
754.864	0.04142
755.175	0.04203
755.485	0.04272
755.796	0.04337
756.106	0.04406
756.417	0.04477
756.727	0.04547
757.037	0.04616
757.347	0.04688
757.658	0.04757
757.968	0.04826
758.278	0.04898
758.588	0.04964
758.898	0.05033
759.208	0.05087
759.517	0.05143
759.827	0.05201
760.137	0.05266
760.447	0.05321
760.756	0.05374
761.066	0.05426
761.375	0.05477
761.685	0.05525
761.994	0.05568
762.304	0.05611
762.613	0.05651
762.922	0.05679
763.232	0.05707
763.541	0.05739
763.85	0.05764
764.159	0.05781
764.468	0.05805
764.777	0.05816
765.086	0.05836
765.395	0.05855
765.704	0.05873
766.013	0.05896
766.321	0.05907
766.63	0.05914
766.939	0.05929
767.247	0.05939
767.556	0.05941
767.864	0.05936
768.173	0.05942
768.481	0.05944
768.789	0.05949
769.098	0.05942
769.406	0.05948
769.714	0.05948
770.022	0.05946
770.33	0.05952
770.638	0.05951
770.946	0.05947
771.254	0.05959
771.562	0.05958
771.87	0.05943
772.178	0.05941
772.486	0.05946
772.793	0.05942
773.101	0.05926
773.408	0.05905
773.716	0.05892
774.023	0.0589
774.331	0.05886
774.638	0.05879
774.946	0.05882
775.253	0.05887
775.56	0.05887
775.867	0.05881
776.174	0.05865
776.481	0.05855
776.788	0.05829
777.095	0.05812
777.402	0.05791
777.709	0.05759
778.016	0.05725
778.323	0.05714
778.63	0.05691
778.936	0.05651
779.243	0.05632
779.549	0.05619
779.856	0.05608
780.162	0.05594
780.469	0.0557
780.775	0.0554
781.082	0.05509
781.388	0.05481
781.694	0.05443
782	0.05412
782.306	0.05389
782.612	0.05374
782.918	0.05353
783.224	0.05337
783.53	0.05326
783.836	0.05296
784.142	0.05292
784.448	0.05284
784.753	0.05257
785.059	0.05241
785.365	0.05208
785.67	0.05176
785.976	0.05143
786.281	0.05122
786.586	0.05091
786.892	0.05058
787.197	0.05043
787.502	0.05022
787.808	0.04992
788.113	0.0496
788.418	0.0493
788.723	0.04901
789.028	0.0488
789.333	0.04845
789.638	0.04813
789.942	0.04773
790.247	0.04748
790.552	0.0471
790.857	0.04659
791.161	0.04629
791.466	0.04597
791.77	0.04583
792.075	0.04554
792.379	0.04534
792.684	0.04499
792.988	0.04457
793.292	0.04421
793.597	0.04387
793.901	0.0436
794.205	0.0434
794.509	0.0432
794.813	0.04276
795.117	0.04219
795.421	0.04165
795.725	0.04137
796.029	0.04095
796.332	0.04049
796.636	0.04018
796.94	0.03959
797.243	0.03943
797.547	0.03902
797.85	0.03857
798.154	0.03809
798.457	0.03758
798.761	0.03704
799.064	0.03647
799.367	0.03619
799.67	0.0358
799.973	0.03535
800.277	0.03475
800.58	0.03407
800.883	0.0334
801.186	0.03306
801.488	0.0327
801.791	0.03217
802.094	0.03157
802.397	0.03112
802.699	0.03084
803.002	0.03039
803.305	0.02993
803.607	0.02935
803.91	0.02901
804.212	0.02838
804.515	0.02788
804.817	0.02748
805.119	0.02696
805.421	0.0265
805.724	0.02574
806.026	0.02526
806.328	0.02457
806.63	0.02405
806.932	0.02323
807.234	0.02254
807.535	0.02185
807.837	0.02119
808.139	0.02059
808.441	0.0199
808.742	0.01919
809.044	0.01821
809.346	0.01729
809.647	0.01673
809.948	0.01596
810.25	0.01488
810.551	0.01414
810.853	0.0133
811.154	0.01251
811.455	0.01164
811.756	0.01071
812.057	0.01004
812.358	0.00921
812.659	0.00824
812.96	0.0073
813.261	0.00664
813.562	0.00595
813.863	0.00506
814.163	0.00428
814.464	0.00344
814.765	0.00255
815.065	0.00168
815.366	0.00089
815.666	0.00027
815.967	-0.00083
816.267	-0.00205
816.567	-0.0031
816.868	-0.00402
817.168	-0.00517
817.468	-0.00642
817.768	-0.00745
818.068	-0.00869
818.368	-0.00981
818.668	-0.0113
818.968	-0.01239
819.268	-0.01352
819.568	-0.01477
819.867	-0.01631
820.167	-0.01754
820.467	-0.01915
820.766	-0.02066
821.066	-0.02211
821.365	-0.02362
821.665	-0.02491
821.964	-0.02678
822.263	-0.02817
822.563	-0.02951
822.862	-0.03093
823.161	-0.03269
823.46	-0.03421
823.759	-0.03591
824.058	-0.03798
824.357	-0.03963
824.656	-0.04166
824.955	-0.0435
825.254	-0.04545
825.552	-0.0477
825.851	-0.04998
826.15	-0.05197
826.448	-0.05421
826.747	-0.05637
827.045	-0.05856
827.344	-0.06093
827.642	-0.06374
827.941	-0.06659
828.239	-0.06912
828.537	-0.07211
828.835	-0.0752
829.133	-0.07827
829.432	-0.08148
829.73	-0.08473
830.028	-0.08761
830.325	-0.09028
830.623	-0.09349
830.921	-0.09704
831.219	-0.10051
831.517	-0.10486
831.814	-0.10874
832.112	-0.11209
832.409	-0.11629
832.707	-0.12114
833.004	-0.12615
833.302	-0.13151
833.599	-0.137
833.896	-0.14178
834.194	-0.14642
834.491	-0.15246
834.788	-0.15865
835.085	-0.16471
835.382	-0.17123
835.679	-0.17725
835.976	-0.18385
836.273	-0.19168
836.57	-0.2002
836.866	-0.20913
837.163	-0.21838
837.46	-0.22714
837.756	-0.23578
838.053	-0.24524
838.349	-0.25705
838.646	-0.26847
838.942	-0.27956
839.239	-0.29083
839.535	-0.30271
839.831	-0.31568
840.127	-0.33059
840.423	-0.34897
840.72	-0.3669
841.016	-0.38656
841.312	-0.4067
841.607	-0.42894
841.903	-0.45565
842.199	-0.48534
842.495	-0.51628
842.791	-0.55279
843.086	-0.59069
843.382	-0.63418
843.677	-0.69007
843.973	-0.76108
844.268	-0.84946
844.564	-0.96273
844.859	-1.12859
845.154	-1.41695
845.45	-2.91525
845.745	-0
846.04	-0
846.335	-0
846.63	-0
846.925	-0
847.22	-0
847.515	-0
847.81	-0
848.104	-0
848.399	-0
848.694	-0
848.988	-0
849.283	-0
849.578	-0
849.872	-0
850.166	-0
850.461	-0
850.755	-0
851.049	-0
851.343	-0
851.638	-0
851.932	-0
852.226	-0
852.52	-0
852.814	-0
853.107	-0
853.401	-0
853.695	-0
853.989	-0
854.282	-0
854.576	-0
854.869	-0
855.163	-0
855.456	-0
855.75	-0
856.043	-0
856.336	-0
856.63	-0
856.923	-0
857.216	-0
857.509	-0
857.802	-0
858.095	-0
858.388	-0
858.681	-0
858.974	-0
859.266	-0
859.559	-0
859.852	-0
860.144	-0
860.437	-0
860.729	-0
861.022	-0
861.314	-0
861.606	-0
861.899	-0
862.191	-0
862.483	-0
862.775	-0
863.067	-0
863.359	-0
863.651	-0
863.943	-0
864.235	-0
864.527	-0
864.819	-0
865.11	-0
865.402	-0
865.693	-0
865.985	-0
866.276	-0
866.568	-0
866.859	-0
867.151	-0
867.442	-0
867.733	-0
868.024	-0
868.315	-0
868.606	-0
868.897	-0
869.188	-0
869.479	-0
869.77	-0
870.061	-0
870.351	-0
870.642	-0
870.933	-0
871.223	-0
871.514	-0
871.804	-0
872.095	-0
872.385	-0
872.675	-0
