Data from 10 min laser_Absorbance_01.txt Node
Date: Fri Jan 27 16:02:31 EST 2023
User: UV-vis
Spectrometer: FLMS04918
Trigger mode: 0
Integration Time (sec): 1.370000E-3
Scans to average: 10
Electric dark correction enabled: true
Nonlinearity correction enabled: false
Boxcar width: 10
XAxis mode: Wavelengths
Number of Pixels in Spectrum: 2048
>>>>>Begin Spectral Data<<<<<
179.23	0.03402
179.611	0.14183
179.992	0.18975
180.373	0.22889
180.754	0.323
181.134	0.49093
181.515	0.41372
181.896	0.3923
182.276	0.41313
182.657	0.28593
183.038	0.26207
183.418	0.1262
183.799	0.12823
184.179	-0.56216
184.56	-0.16419
184.94	-0.09841
185.32	-0.0843
185.701	-0.07393
186.081	-0.06143
186.461	-0.04351
186.842	-0.04129
187.222	-0.02939
187.602	-0.03047
187.982	-0.03342
188.362	-0.03227
188.742	-0.03087
189.122	-0.04002
189.502	-0.04079
189.882	-0.03688
190.262	-0.03199
190.642	-0.02661
191.022	-0.02599
191.402	-0.0219
191.781	-0.0236
192.161	-0.01977
192.541	-0.01762
192.92	-0.01692
193.3	-0.01931
193.68	-0.02048
194.059	-0.01908
194.439	-0.01891
194.818	-0.01942
195.198	-0.02263
195.577	-0.02705
195.957	-0.02847
196.336	-0.02748
196.715	-0.02894
197.094	-0.02789
197.474	-0.02925
197.853	-0.03088
198.232	-0.03447
198.611	-0.03644
198.99	-0.03447
199.369	-0.03852
199.748	-0.03496
200.127	-0.03378
200.506	-0.03656
200.885	-0.03334
201.264	-0.03015
201.643	-0.02934
202.022	-0.02878
202.401	-0.0315
202.779	-0.03294
203.158	-0.03198
203.537	-0.02936
203.915	-0.02625
204.294	-0.02697
204.673	-0.02988
205.051	-0.03081
205.43	-0.02717
205.808	-0.02504
206.187	-0.02923
206.565	-0.02971
206.943	-0.02937
207.322	-0.02726
207.7	-0.03355
208.078	-0.03529
208.456	-0.03317
208.835	-0.03595
209.213	-0.0397
209.591	-0.04019
209.969	-0.04173
210.347	-0.03745
210.725	-0.03416
211.103	-0.03113
211.481	-0.03093
211.859	-0.03334
212.237	-0.03189
212.614	-0.02943
212.992	-0.02485
213.37	-0.02719
213.748	-0.0277
214.125	-0.02152
214.503	-0.02095
214.881	-0.02437
215.258	-0.02255
215.636	-0.01842
216.013	-0.01519
216.391	-0.01815
216.768	-0.01927
217.145	-0.01568
217.523	-0.01351
217.9	-0.01305
218.277	-0.01152
218.655	-0.01395
219.032	-0.01644
219.409	-0.01516
219.786	-0.01716
220.163	-0.02387
220.54	-0.02312
220.917	-0.02698
221.294	-0.02608
221.671	-0.02925
222.048	-0.02809
222.425	-0.02928
222.802	-0.02875
223.179	-0.03028
223.556	-0.03326
223.932	-0.0347
224.309	-0.03368
224.686	-0.03379
225.062	-0.03396
225.439	-0.0326
225.815	-0.03177
226.192	-0.0337
226.568	-0.03308
226.945	-0.03115
227.321	-0.03334
227.698	-0.03091
228.074	-0.02986
228.45	-0.0287
228.827	-0.02569
229.203	-0.02762
229.579	-0.02632
229.955	-0.02965
230.331	-0.03108
230.707	-0.02798
231.083	-0.02935
231.46	-0.02965
231.835	-0.03262
232.211	-0.03128
232.587	-0.0291
232.963	-0.03116
233.339	-0.03532
233.715	-0.0375
234.091	-0.03748
234.466	-0.03917
234.842	-0.04047
235.218	-0.03975
235.593	-0.03929
235.969	-0.03646
236.344	-0.03805
236.72	-0.04256
237.095	-0.04152
237.471	-0.0402
237.846	-0.04046
238.222	-0.04173
238.597	-0.04456
238.972	-0.04247
239.348	-0.03974
239.723	-0.0358
240.098	-0.03606
240.473	-0.03619
240.848	-0.03619
241.223	-0.03481
241.598	-0.03484
241.973	-0.03698
242.348	-0.03639
242.723	-0.03832
243.098	-0.03967
243.473	-0.04029
243.848	-0.03991
244.223	-0.0413
244.597	-0.04082
244.972	-0.04264
245.347	-0.04199
245.721	-0.04145
246.096	-0.04059
246.47	-0.04161
246.845	-0.04519
247.219	-0.04677
247.594	-0.05032
247.968	-0.05363
248.343	-0.05794
248.717	-0.05782
249.091	-0.05929
249.466	-0.05764
249.84	-0.0586
250.214	-0.06143
250.588	-0.06152
250.962	-0.06488
251.336	-0.06594
251.71	-0.06892
252.084	-0.06934
252.458	-0.07173
252.832	-0.06968
253.206	-0.07472
253.58	-0.0757
253.954	-0.07628
254.328	-0.07766
254.702	-0.07431
255.075	-0.07557
255.449	-0.07806
255.823	-0.07868
256.196	-0.07917
256.57	-0.08133
256.943	-0.081
257.317	-0.0864
257.69	-0.09038
258.064	-0.09018
258.437	-0.0931
258.81	-0.09354
259.184	-0.09461
259.557	-0.09587
259.93	-0.09577
260.303	-0.09587
260.677	-0.09731
261.05	-0.09692
261.423	-0.10034
261.796	-0.0999
262.169	-0.10165
262.542	-0.10406
262.915	-0.10434
263.288	-0.10381
263.661	-0.10184
264.033	-0.10402
264.406	-0.10454
264.779	-0.10907
265.152	-0.1111
265.524	-0.10935
265.897	-0.10906
266.27	-0.1109
266.642	-0.10861
267.015	-0.11165
267.387	-0.11106
267.76	-0.11281
268.132	-0.11425
268.504	-0.11633
268.877	-0.11723
269.249	-0.11754
269.621	-0.11681
269.994	-0.11794
270.366	-0.12102
270.738	-0.12515
271.11	-0.12552
271.482	-0.13045
271.854	-0.13286
272.226	-0.13625
272.598	-0.1372
272.97	-0.13699
273.342	-0.1407
273.714	-0.1445
274.086	-0.14716
274.458	-0.15369
274.829	-0.15602
275.201	-0.16064
275.573	-0.16585
275.944	-0.17056
276.316	-0.17457
276.688	-0.18
277.059	-0.18642
277.431	-0.19615
277.802	-0.20622
278.173	-0.22111
278.545	-0.24362
278.916	-0.27977
279.287	-0.32863
279.659	-0.39161
280.03	-0.46647
280.401	-0.55277
280.772	-0.641
281.143	-0.72786
281.515	-0.81012
281.886	-0.88249
282.257	-0.94644
282.628	-1.00195
282.998	-1.04663
283.369	-1.08188
283.74	-1.10667
284.111	-1.12557
284.482	-1.13605
284.853	-1.13993
285.223	-1.14135
285.594	-1.13658
285.965	-1.12922
286.335	-1.1183
286.706	-1.10538
287.076	-1.0909
287.447	-1.07426
287.817	-1.05628
288.188	-1.0364
288.558	-1.01627
288.928	-0.99449
289.299	-0.9718
289.669	-0.94896
290.039	-0.92529
290.409	-0.90115
290.779	-0.87756
291.149	-0.85334
291.52	-0.83015
291.89	-0.80747
292.26	-0.78497
292.629	-0.76366
292.999	-0.74262
293.369	-0.72216
293.739	-0.70245
294.109	-0.68349
294.479	-0.66496
294.848	-0.64687
295.218	-0.6295
295.588	-0.61265
295.957	-0.59644
296.327	-0.58067
296.696	-0.56522
297.066	-0.54999
297.435	-0.53565
297.805	-0.52135
298.174	-0.50775
298.544	-0.49466
298.913	-0.48228
299.282	-0.47038
299.651	-0.45879
300.021	-0.44789
300.39	-0.43735
300.759	-0.42717
301.128	-0.4178
301.497	-0.40885
301.866	-0.40031
302.235	-0.39212
302.604	-0.38423
302.973	-0.37652
303.342	-0.36896
303.71	-0.3614
304.079	-0.35394
304.448	-0.34656
304.817	-0.33932
305.185	-0.33197
305.554	-0.3247
305.923	-0.31753
306.291	-0.31043
306.66	-0.30331
307.028	-0.29673
307.397	-0.29008
307.765	-0.28357
308.133	-0.2771
308.502	-0.27108
308.87	-0.2651
309.238	-0.25949
309.606	-0.254
309.975	-0.24864
310.343	-0.24353
310.711	-0.2386
311.079	-0.23382
311.447	-0.22921
311.815	-0.22471
312.183	-0.22032
312.551	-0.21616
312.919	-0.21203
313.286	-0.2081
313.654	-0.20434
314.022	-0.20063
314.39	-0.19719
314.757	-0.19364
315.125	-0.19043
315.492	-0.18731
315.86	-0.1844
316.228	-0.18126
316.595	-0.17832
316.962	-0.17523
317.33	-0.17226
317.697	-0.16942
318.065	-0.16658
318.432	-0.16372
318.799	-0.16084
319.166	-0.15789
319.534	-0.15506
319.901	-0.15238
320.268	-0.14969
320.635	-0.14717
321.002	-0.14462
321.369	-0.14213
321.736	-0.13963
322.103	-0.13714
322.47	-0.13468
322.836	-0.13211
323.203	-0.1295
323.57	-0.12679
323.937	-0.12422
324.303	-0.12139
324.67	-0.11874
325.037	-0.11608
325.403	-0.11334
325.77	-0.11053
326.136	-0.10773
326.503	-0.10503
326.869	-0.10243
327.235	-0.0998
327.602	-0.0971
327.968	-0.09464
328.334	-0.09212
328.7	-0.08973
329.067	-0.0873
329.433	-0.08494
329.799	-0.08266
330.165	-0.08037
330.531	-0.07819
330.897	-0.07601
331.263	-0.07393
331.629	-0.07196
331.995	-0.07019
332.36	-0.06826
332.726	-0.06643
333.092	-0.06471
333.458	-0.06297
333.823	-0.06134
334.189	-0.05975
334.554	-0.05809
334.92	-0.05655
335.286	-0.05511
335.651	-0.05352
336.016	-0.05189
336.382	-0.05029
336.747	-0.04878
337.113	-0.04737
337.478	-0.04586
337.843	-0.04445
338.208	-0.04303
338.573	-0.04164
338.939	-0.04021
339.304	-0.03878
339.669	-0.0372
340.034	-0.03571
340.399	-0.0342
340.764	-0.03276
341.129	-0.03132
341.493	-0.02984
341.858	-0.0283
342.223	-0.02688
342.588	-0.0253
342.952	-0.02374
343.317	-0.02213
343.682	-0.02066
344.046	-0.01922
344.411	-0.01774
344.775	-0.01616
345.14	-0.01466
345.504	-0.01308
345.869	-0.01152
346.233	-0.00998
346.597	-0.00843
346.962	-0.00684
347.326	-0.00527
347.69	-0.0037
348.054	-0.00216
348.418	-0.00056
348.782	0.00083
349.146	0.00227
349.51	0.00374
349.874	0.00534
350.238	0.00675
350.602	0.00825
350.966	0.00957
351.33	0.01099
351.693	0.01239
352.057	0.01385
352.421	0.01528
352.784	0.01669
353.148	0.01805
353.512	0.01949
353.875	0.02101
354.239	0.02236
354.602	0.02375
354.966	0.02513
355.329	0.02643
355.692	0.02775
356.056	0.02914
356.419	0.03062
356.782	0.032
357.145	0.03342
357.508	0.03472
357.871	0.03618
358.234	0.03753
358.597	0.03897
358.96	0.04037
359.323	0.04188
359.686	0.04332
360.049	0.04473
360.412	0.04617
360.775	0.04752
361.137	0.04886
361.5	0.0501
361.863	0.05162
362.225	0.05304
362.588	0.05442
362.951	0.0558
363.313	0.05713
363.675	0.0586
364.038	0.06
364.4	0.06141
364.763	0.06274
365.125	0.06412
365.487	0.06533
365.849	0.06658
366.212	0.06784
366.574	0.06921
366.936	0.07048
367.298	0.0718
367.66	0.07312
368.022	0.07442
368.384	0.07593
368.746	0.0773
369.108	0.07866
369.469	0.07998
369.831	0.08141
370.193	0.08282
370.555	0.08427
370.916	0.08582
371.278	0.08715
371.64	0.08857
372.001	0.09006
372.363	0.09142
372.724	0.09284
373.086	0.09439
373.447	0.09584
373.808	0.09723
374.17	0.09861
374.531	0.09994
374.892	0.10125
375.253	0.10254
375.615	0.104
375.976	0.10542
376.337	0.10691
376.698	0.1084
377.059	0.10989
377.42	0.11131
377.781	0.11272
378.141	0.11429
378.502	0.11582
378.863	0.11732
379.224	0.11892
379.585	0.12047
379.945	0.12207
380.306	0.12376
380.666	0.12541
381.027	0.12711
381.388	0.12892
381.748	0.13067
382.108	0.13257
382.469	0.13443
382.829	0.13631
383.19	0.13822
383.55	0.14001
383.91	0.14188
384.27	0.14389
384.63	0.14576
384.991	0.14774
385.351	0.1497
385.711	0.15164
386.071	0.15362
386.431	0.15569
386.791	0.1576
387.15	0.15961
387.51	0.16172
387.87	0.16357
388.23	0.16558
388.589	0.16761
388.949	0.16958
389.309	0.1717
389.668	0.17373
390.028	0.17587
390.387	0.17798
390.747	0.18
391.106	0.18222
391.466	0.1844
391.825	0.18652
392.184	0.18894
392.544	0.19131
392.903	0.1936
393.262	0.19598
393.621	0.19834
393.98	0.20082
394.339	0.20337
394.698	0.20603
395.057	0.20857
395.416	0.21131
395.775	0.21398
396.134	0.21669
396.493	0.21955
396.852	0.22217
397.211	0.22509
397.569	0.2279
397.928	0.23087
398.287	0.23384
398.645	0.23676
399.004	0.23968
399.362	0.24268
399.721	0.2456
400.079	0.24864
400.438	0.25181
400.796	0.25485
401.154	0.25808
401.512	0.26127
401.871	0.26455
402.229	0.26777
402.587	0.27131
402.945	0.27455
403.303	0.27775
403.661	0.28111
404.019	0.28428
404.377	0.28775
404.735	0.29096
405.093	0.29414
405.451	0.29732
405.808	0.30037
406.166	0.30351
406.524	0.30662
406.882	0.30967
407.239	0.31266
407.597	0.31562
407.954	0.31862
408.312	0.32176
408.669	0.32473
409.027	0.32788
409.384	0.33108
409.741	0.33415
410.099	0.337
410.456	0.34002
410.813	0.34275
411.17	0.34553
411.527	0.34841
411.884	0.35096
412.242	0.35376
412.599	0.35655
412.956	0.35914
413.312	0.36185
413.669	0.36446
414.026	0.36687
414.383	0.3693
414.74	0.37171
415.096	0.37397
415.453	0.37624
415.81	0.37828
416.166	0.3806
416.523	0.38267
416.879	0.38472
417.236	0.38677
417.592	0.38867
417.949	0.39059
418.305	0.39257
418.661	0.3942
419.018	0.39565
419.374	0.39711
419.73	0.39839
420.086	0.39952
420.442	0.40062
420.798	0.40155
421.154	0.40234
421.51	0.40305
421.866	0.40358
422.222	0.40405
422.578	0.40455
422.934	0.40474
423.29	0.40491
423.646	0.40485
424.001	0.40478
424.357	0.40446
424.713	0.40413
425.068	0.40384
425.424	0.40326
425.779	0.40253
426.135	0.40176
426.49	0.40071
426.845	0.39984
427.201	0.39845
427.556	0.39732
427.911	0.39628
428.266	0.39501
428.622	0.39343
428.977	0.39172
429.332	0.39013
429.687	0.38845
430.042	0.38703
430.397	0.38562
430.752	0.38389
431.107	0.38237
431.461	0.38091
431.816	0.37932
432.171	0.37768
432.526	0.37589
432.88	0.37387
433.235	0.37211
433.59	0.37002
433.944	0.3682
434.299	0.36584
434.653	0.36401
435.008	0.36186
435.362	0.35959
435.716	0.35718
436.071	0.35498
436.425	0.35311
436.779	0.35117
437.133	0.3488
437.487	0.3461
437.841	0.34345
438.195	0.34125
438.549	0.33847
438.903	0.33558
439.257	0.33287
439.611	0.33008
439.965	0.32714
440.319	0.32414
440.673	0.32109
441.026	0.31816
441.38	0.31496
441.734	0.31205
442.087	0.30904
442.441	0.30586
442.794	0.30279
443.148	0.29988
443.501	0.29711
443.855	0.29425
444.208	0.29127
444.561	0.28848
444.915	0.28557
445.268	0.28279
445.621	0.27999
445.974	0.27772
446.327	0.2752
446.68	0.27266
447.033	0.27005
447.386	0.26762
447.739	0.26528
448.092	0.26322
448.445	0.26094
448.798	0.25883
449.15	0.25637
449.503	0.2542
449.856	0.25204
450.209	0.24979
450.561	0.24761
450.914	0.24542
451.266	0.24321
451.619	0.24102
451.971	0.23861
452.323	0.23644
452.676	0.23405
453.028	0.23188
453.38	0.22962
453.733	0.22755
454.085	0.22547
454.437	0.22316
454.789	0.22092
455.141	0.21888
455.493	0.21644
455.845	0.21427
456.197	0.21202
456.549	0.21007
456.901	0.20805
457.253	0.20605
457.604	0.20385
457.956	0.20169
458.308	0.19969
458.659	0.1974
459.011	0.19532
459.362	0.19339
459.714	0.19158
460.065	0.18995
460.417	0.18822
460.768	0.18627
461.12	0.18428
461.471	0.18234
461.822	0.18088
462.173	0.1792
462.525	0.17736
462.876	0.17558
463.227	0.17364
463.578	0.17197
463.929	0.17049
464.28	0.16864
464.631	0.16685
464.982	0.16563
465.332	0.16406
465.683	0.1622
466.034	0.16098
466.385	0.15928
466.735	0.15762
467.086	0.15622
467.437	0.1548
467.787	0.15303
468.138	0.15134
468.488	0.14979
468.839	0.14846
469.189	0.14682
469.539	0.14554
469.89	0.14408
470.24	0.14289
470.59	0.14175
470.94	0.14056
471.29	0.13897
471.64	0.13762
471.99	0.13646
472.34	0.13496
472.69	0.13365
473.04	0.13264
473.39	0.13153
473.74	0.13068
474.09	0.12972
474.439	0.12846
474.789	0.12716
475.139	0.12603
475.488	0.12504
475.838	0.12422
476.188	0.12292
476.537	0.12181
476.886	0.12052
477.236	0.11982
477.585	0.11869
477.935	0.1177
478.284	0.11663
478.633	0.11556
478.982	0.11464
479.331	0.11354
479.68	0.11257
480.03	0.11159
480.379	0.11073
480.728	0.10962
481.076	0.10865
481.425	0.10749
481.774	0.10646
482.123	0.10552
482.472	0.10482
482.821	0.10399
483.169	0.10295
483.518	0.10239
483.866	0.10164
484.215	0.10086
484.563	0.09971
484.912	0.099
485.26	0.09812
485.609	0.09737
485.957	0.09663
486.305	0.09602
486.654	0.09517
487.002	0.09454
487.35	0.09391
487.698	0.09324
488.046	0.09277
488.394	0.09182
488.742	0.09123
489.09	0.09057
489.438	0.08994
489.786	0.08918
490.134	0.08851
490.482	0.08785
490.829	0.08708
491.177	0.08634
491.525	0.08585
491.872	0.08528
492.22	0.08438
492.567	0.08368
492.915	0.08289
493.262	0.08239
493.61	0.08162
493.957	0.08107
494.304	0.08049
494.652	0.07996
494.999	0.07924
495.346	0.0784
495.693	0.07788
496.04	0.07744
496.387	0.07674
496.734	0.0761
497.081	0.07574
497.428	0.07522
497.775	0.07467
498.122	0.07399
498.469	0.07341
498.816	0.07282
499.162	0.07231
499.509	0.07194
499.856	0.0715
500.202	0.07073
500.549	0.07012
500.895	0.06976
501.242	0.06917
501.588	0.06867
501.935	0.06795
502.281	0.0675
502.627	0.06695
502.973	0.06658
503.32	0.0659
503.666	0.0658
504.012	0.06536
504.358	0.06448
504.704	0.06391
505.05	0.06357
505.396	0.0631
505.742	0.06274
506.088	0.06214
506.433	0.06163
506.779	0.06114
507.125	0.06061
507.471	0.06047
507.816	0.06008
508.162	0.05948
508.507	0.05892
508.853	0.05821
509.198	0.05773
509.544	0.05716
509.889	0.05669
510.234	0.05613
510.58	0.05576
510.925	0.05508
511.27	0.05457
511.615	0.0542
511.96	0.05359
512.306	0.05307
512.651	0.0526
512.996	0.05203
513.341	0.05163
513.685	0.0512
514.03	0.05074
514.375	0.0503
514.72	0.0498
515.065	0.0492
515.409	0.0486
515.754	0.04842
516.099	0.04794
516.443	0.04768
516.788	0.04736
517.132	0.04684
517.476	0.04654
517.821	0.0461
518.165	0.04578
518.51	0.04544
518.854	0.04503
519.198	0.04479
519.542	0.04444
519.886	0.04428
520.23	0.0439
520.574	0.04359
520.918	0.04326
521.262	0.04292
521.606	0.04255
521.95	0.04211
522.294	0.04178
522.638	0.04157
522.981	0.04119
523.325	0.04113
523.669	0.04057
524.012	0.04021
524.356	0.04009
524.699	0.03967
525.043	0.03931
525.386	0.03881
525.73	0.03827
526.073	0.03795
526.416	0.03751
526.76	0.0371
527.103	0.03654
527.446	0.03625
527.789	0.03584
528.132	0.03549
528.475	0.03511
528.818	0.03486
529.161	0.03458
529.504	0.0342
529.847	0.03387
530.19	0.03364
530.532	0.03316
530.875	0.03302
531.218	0.03268
531.56	0.03215
531.903	0.03179
532.246	0.03164
532.588	0.03145
532.93	0.03127
533.273	0.0311
533.615	0.03079
533.958	0.03036
534.3	0.0301
534.642	0.02972
534.984	0.02929
535.326	0.02905
535.669	0.02881
536.011	0.02843
536.353	0.02814
536.695	0.02784
537.037	0.02765
537.378	0.02729
537.72	0.02694
538.062	0.02669
538.404	0.02637
538.746	0.02626
539.087	0.02611
539.429	0.02583
539.77	0.02563
540.112	0.02546
540.454	0.02511
540.795	0.02502
541.136	0.02487
541.478	0.02457
541.819	0.02442
542.16	0.02431
542.502	0.02407
542.843	0.02385
543.184	0.02363
543.525	0.02345
543.866	0.02335
544.207	0.02304
544.548	0.02269
544.889	0.02243
545.23	0.0221
545.571	0.02196
545.911	0.02185
546.252	0.02167
546.593	0.02133
546.934	0.02101
547.274	0.02084
547.615	0.02057
547.955	0.02033
548.296	0.02028
548.636	0.02018
548.977	0.01999
549.317	0.01977
549.657	0.01942
549.997	0.01908
550.338	0.01895
550.678	0.01875
551.018	0.0186
551.358	0.0184
551.698	0.01836
552.038	0.0185
552.378	0.01834
552.718	0.01782
553.058	0.0175
553.398	0.017
553.737	0.01691
554.077	0.01676
554.417	0.0166
554.756	0.0164
555.096	0.01612
555.435	0.0158
555.775	0.0154
556.114	0.01512
556.454	0.01509
556.793	0.01494
557.133	0.01483
557.472	0.01471
557.811	0.01435
558.15	0.01403
558.489	0.01369
558.829	0.01347
559.168	0.01303
559.507	0.01288
559.846	0.01292
560.184	0.01283
560.523	0.01284
560.862	0.01266
561.201	0.01248
561.54	0.01213
561.878	0.01218
562.217	0.01202
562.556	0.0118
562.894	0.01193
563.233	0.01196
563.571	0.01173
563.91	0.01169
564.248	0.01164
564.586	0.0115
564.925	0.01132
565.263	0.01126
565.601	0.01138
565.939	0.01118
566.277	0.0112
566.616	0.01095
566.954	0.01083
567.292	0.01063
567.63	0.01066
567.967	0.01043
568.305	0.01026
568.643	0.01017
568.981	0.00988
569.319	0.00974
569.656	0.00973
569.994	0.00944
570.331	0.00929
570.669	0.00905
571.006	0.00893
571.344	0.00872
571.681	0.00858
572.019	0.00863
572.356	0.00857
572.693	0.00834
573.03	0.00827
573.368	0.00814
573.705	0.00817
574.042	0.00804
574.379	0.00793
574.716	0.00779
575.053	0.0077
575.39	0.00755
575.727	0.00747
576.063	0.00737
576.4	0.00728
576.737	0.00713
577.074	0.00715
577.41	0.00697
577.747	0.007
578.083	0.00673
578.42	0.00657
578.756	0.00634
579.093	0.00618
579.429	0.00612
579.766	0.00616
580.102	0.00614
580.438	0.00587
580.774	0.0057
581.11	0.00563
581.446	0.00548
581.782	0.00527
582.119	0.00528
582.454	0.00522
582.79	0.00511
583.126	0.00512
583.462	0.00507
583.798	0.00493
584.134	0.0048
584.469	0.00463
584.805	0.00441
585.141	0.00445
585.476	0.00441
585.812	0.0044
586.147	0.00439
586.482	0.00427
586.818	0.00399
587.153	0.00381
587.488	0.00376
587.824	0.00367
588.159	0.00362
588.494	0.00363
588.829	0.00352
589.164	0.0033
589.499	0.00323
589.834	0.00315
590.169	0.00296
590.504	0.00283
590.839	0.00291
591.174	0.00293
591.508	0.00291
591.843	0.00293
592.178	0.00287
592.512	0.00288
592.847	0.00283
593.181	0.00271
593.516	0.00247
593.85	0.00254
594.185	0.00245
594.519	0.00238
594.853	0.00242
595.187	0.00227
595.522	0.00213
595.856	0.00209
596.19	0.00215
596.524	0.00208
596.858	0.0019
597.192	0.00185
597.526	0.00188
597.86	0.0017
598.194	0.00151
598.527	0.00148
598.861	0.00133
599.195	0.00123
599.528	0.00114
599.862	0.00106
600.196	0.00097
600.529	0.00097
600.863	0.00071
601.196	0.00047
601.529	0.00042
601.863	0.00021
602.196	0.00024
602.529	0.00021
602.862	0.00017
603.196	-0.00002
603.529	-0.00018
603.862	-0.00019
604.195	-0.00026
604.528	-0.00047
604.861	-0.00049
605.193	-0.00075
605.526	-0.00076
605.859	-0.00062
606.192	-0.00077
606.524	-0.00094
606.857	-0.00107
607.19	-0.00105
607.522	-0.00106
607.855	-0.00103
608.187	-0.00092
608.52	-0.00108
608.852	-0.00098
609.184	-0.00115
609.517	-0.00121
609.849	-0.0012
610.181	-0.00125
610.513	-0.00119
610.845	-0.00123
611.177	-0.00141
611.509	-0.00138
611.841	-0.00143
612.173	-0.00133
612.505	-0.0015
612.837	-0.00171
613.169	-0.0017
613.5	-0.00173
613.832	-0.0018
614.164	-0.00185
614.495	-0.00203
614.827	-0.00206
615.158	-0.00217
615.49	-0.00205
615.821	-0.00214
616.152	-0.00219
616.484	-0.00232
616.815	-0.00249
617.146	-0.00247
617.477	-0.00254
617.808	-0.00258
618.14	-0.00247
618.471	-0.0025
618.802	-0.0026
619.133	-0.00256
619.463	-0.0026
619.794	-0.00263
620.125	-0.00273
620.456	-0.00273
620.787	-0.00281
621.117	-0.00292
621.448	-0.00293
621.778	-0.00283
622.109	-0.0029
622.439	-0.00295
622.77	-0.00304
623.1	-0.00311
623.43	-0.00312
623.761	-0.00309
624.091	-0.00308
624.421	-0.00305
624.751	-0.00308
625.081	-0.00315
625.412	-0.00327
625.742	-0.00332
626.072	-0.00332
626.401	-0.00341
626.731	-0.0035
627.061	-0.00352
627.391	-0.00367
627.721	-0.00369
628.05	-0.00371
628.38	-0.00363
628.71	-0.00385
629.039	-0.00367
629.369	-0.00378
629.698	-0.00381
630.028	-0.00368
630.357	-0.00375
630.686	-0.00369
631.015	-0.00381
631.345	-0.00396
631.674	-0.00402
632.003	-0.00399
632.332	-0.00407
632.661	-0.00417
632.99	-0.00434
633.319	-0.00439
633.648	-0.0045
633.977	-0.00463
634.306	-0.00469
634.634	-0.00463
634.963	-0.00483
635.292	-0.00497
635.62	-0.00501
635.949	-0.00525
636.277	-0.00528
636.606	-0.00528
636.934	-0.00542
637.263	-0.00557
637.591	-0.00582
637.919	-0.00581
638.248	-0.00588
638.576	-0.00591
638.904	-0.00606
639.232	-0.00607
639.56	-0.00596
639.888	-0.00601
640.216	-0.00604
640.544	-0.00585
640.872	-0.00576
641.2	-0.00571
641.528	-0.00583
641.855	-0.00573
642.183	-0.0058
642.511	-0.00592
642.838	-0.00589
643.166	-0.00596
643.493	-0.006
643.821	-0.0061
644.148	-0.00606
644.475	-0.00586
644.803	-0.006
645.13	-0.00601
645.457	-0.00599
645.784	-0.00591
646.112	-0.00588
646.439	-0.00607
646.766	-0.00603
647.093	-0.00592
647.42	-0.00601
647.746	-0.0061
648.073	-0.0062
648.4	-0.00629
648.727	-0.00638
649.053	-0.0063
649.38	-0.00622
649.707	-0.0062
650.033	-0.00622
650.36	-0.0062
650.686	-0.00604
651.013	-0.00606
651.339	-0.00637
651.665	-0.00632
651.992	-0.00621
652.318	-0.00629
652.644	-0.00646
652.97	-0.00648
653.296	-0.00648
653.622	-0.00659
653.948	-0.00684
654.274	-0.00698
654.6	-0.00691
654.926	-0.00679
655.252	-0.0067
655.578	-0.00672
655.903	-0.00682
656.229	-0.00679
656.555	-0.0068
656.88	-0.00678
657.206	-0.00696
657.531	-0.00717
657.857	-0.00722
658.182	-0.00714
658.507	-0.00715
658.833	-0.00725
659.158	-0.00723
659.483	-0.0072
659.808	-0.00713
660.133	-0.00711
660.458	-0.00712
660.783	-0.00698
661.108	-0.00685
661.433	-0.00685
661.758	-0.00691
662.083	-0.00696
662.408	-0.00684
662.732	-0.00676
663.057	-0.00687
663.382	-0.00698
663.706	-0.00696
664.031	-0.00687
664.355	-0.00679
664.68	-0.00665
665.004	-0.00653
665.328	-0.00664
665.653	-0.00681
665.977	-0.00692
666.301	-0.00695
666.625	-0.00715
666.949	-0.00704
667.273	-0.00701
667.597	-0.00711
667.921	-0.00733
668.245	-0.00751
668.569	-0.00764
668.893	-0.00761
669.217	-0.00774
669.54	-0.00792
669.864	-0.00784
670.188	-0.00781
670.511	-0.00789
670.835	-0.00804
671.158	-0.00817
671.482	-0.00824
671.805	-0.00835
672.128	-0.00825
672.452	-0.00803
672.775	-0.00803
673.098	-0.008
673.421	-0.00791
673.744	-0.00797
674.068	-0.00803
674.391	-0.008
674.714	-0.0079
675.036	-0.0078
675.359	-0.0078
675.682	-0.00802
676.005	-0.00799
676.328	-0.00794
676.65	-0.00791
676.973	-0.00802
677.295	-0.00799
677.618	-0.00792
677.94	-0.00787
678.263	-0.00806
678.585	-0.00809
678.908	-0.00824
679.23	-0.00836
679.552	-0.00837
679.874	-0.00845
680.196	-0.00858
680.519	-0.00876
680.841	-0.00877
681.163	-0.00882
681.485	-0.00887
681.807	-0.00895
682.128	-0.00882
682.45	-0.00866
682.772	-0.00868
683.094	-0.0086
683.415	-0.00881
683.737	-0.00882
684.059	-0.00893
684.38	-0.00894
684.702	-0.00897
685.023	-0.00882
685.344	-0.00891
685.666	-0.0088
685.987	-0.00895
686.308	-0.0088
686.629	-0.00868
686.95	-0.00873
687.272	-0.00867
687.593	-0.00862
687.914	-0.00864
688.235	-0.00861
688.555	-0.00847
688.876	-0.00859
689.197	-0.00859
689.518	-0.00854
689.839	-0.00867
690.159	-0.00858
690.48	-0.00852
690.8	-0.00856
691.121	-0.00862
691.441	-0.0086
691.762	-0.0086
692.082	-0.00849
692.402	-0.00862
692.723	-0.00847
693.043	-0.00858
693.363	-0.00859
693.683	-0.0085
694.003	-0.00845
694.323	-0.00867
694.643	-0.00877
694.963	-0.00879
695.283	-0.0089
695.603	-0.00899
695.923	-0.00918
696.243	-0.00924
696.562	-0.0092
696.882	-0.00895
697.202	-0.00906
697.521	-0.00903
697.841	-0.00916
698.16	-0.00915
698.479	-0.00909
698.799	-0.00917
699.118	-0.00907
699.437	-0.00913
699.757	-0.00921
700.076	-0.00937
700.395	-0.00937
700.714	-0.00939
701.033	-0.00928
701.352	-0.00914
701.671	-0.0093
701.99	-0.00936
702.308	-0.00926
702.627	-0.00923
702.946	-0.00919
703.265	-0.00917
703.583	-0.00943
703.902	-0.00936
704.22	-0.00942
704.539	-0.00926
704.857	-0.00926
705.176	-0.00925
705.494	-0.00933
705.812	-0.0095
706.131	-0.00938
706.449	-0.00935
706.767	-0.00924
707.085	-0.00937
707.403	-0.00948
707.721	-0.00947
708.039	-0.00928
708.357	-0.00918
708.675	-0.00914
708.993	-0.00925
709.31	-0.00903
709.628	-0.00918
709.946	-0.0092
710.263	-0.00916
710.581	-0.00911
710.898	-0.00909
711.216	-0.00916
711.533	-0.00917
711.851	-0.00923
712.168	-0.00913
712.485	-0.0092
712.802	-0.00931
713.12	-0.00944
713.437	-0.00943
713.754	-0.00936
714.071	-0.00932
714.388	-0.0093
714.705	-0.00947
715.022	-0.0096
715.338	-0.0096
715.655	-0.00961
715.972	-0.00986
716.289	-0.00981
716.605	-0.00982
716.922	-0.00995
717.238	-0.01007
717.555	-0.00996
717.871	-0.00995
718.188	-0.01003
718.504	-0.01008
718.82	-0.01029
719.136	-0.01016
719.453	-0.01015
719.769	-0.01011
720.085	-0.01007
720.401	-0.01018
720.717	-0.01016
721.033	-0.01006
721.349	-0.01027
721.665	-0.01026
721.98	-0.01022
722.296	-0.01034
722.612	-0.01026
722.927	-0.01028
723.243	-0.01024
723.559	-0.01009
723.874	-0.01015
724.19	-0.00994
724.505	-0.00993
724.82	-0.0098
725.136	-0.00982
725.451	-0.00963
725.766	-0.00949
726.081	-0.0095
726.396	-0.00949
726.711	-0.0097
727.026	-0.0095
727.341	-0.00947
727.656	-0.00956
727.971	-0.00948
728.286	-0.00936
728.601	-0.00947
728.916	-0.00935
729.23	-0.0094
729.545	-0.00956
729.859	-0.00955
730.174	-0.00949
730.488	-0.00947
730.803	-0.00988
731.117	-0.00987
731.431	-0.00999
731.746	-0.0101
732.06	-0.01012
732.374	-0.01029
732.688	-0.01033
733.002	-0.0103
733.316	-0.01029
733.63	-0.01037
733.944	-0.01047
734.258	-0.01059
734.572	-0.0105
734.886	-0.01065
735.199	-0.01074
735.513	-0.01063
735.827	-0.01049
736.14	-0.0102
736.454	-0.01022
736.767	-0.0102
737.081	-0.01009
737.394	-0.01016
737.708	-0.01013
738.021	-0.01015
738.334	-0.01
738.647	-0.00981
738.96	-0.00973
739.273	-0.00985
739.587	-0.00989
739.9	-0.00996
740.212	-0.00986
740.525	-0.0098
740.838	-0.00957
741.151	-0.00966
741.464	-0.00953
741.776	-0.00925
742.089	-0.00927
742.402	-0.0093
742.714	-0.00958
743.027	-0.00961
743.339	-0.00985
743.651	-0.00995
743.964	-0.00994
744.276	-0.01004
744.588	-0.01
744.901	-0.01003
745.213	-0.01034
745.525	-0.01029
745.837	-0.01024
746.149	-0.01013
746.461	-0.01009
746.773	-0.01014
747.085	-0.01042
747.396	-0.01063
747.708	-0.01049
748.02	-0.01059
748.331	-0.01065
748.643	-0.01075
748.955	-0.01061
749.266	-0.0107
749.577	-0.01068
749.889	-0.01064
750.2	-0.0106
750.512	-0.01048
750.823	-0.01054
751.134	-0.01041
751.445	-0.01064
751.756	-0.0107
752.067	-0.01079
752.378	-0.01067
752.689	-0.0108
753	-0.0109
753.311	-0.01091
753.622	-0.01056
753.932	-0.01071
754.243	-0.01074
754.554	-0.01058
754.864	-0.01034
755.175	-0.01031
755.485	-0.01073
755.796	-0.01042
756.106	-0.01066
756.417	-0.0108
756.727	-0.0108
757.037	-0.01074
757.347	-0.01046
757.658	-0.01071
757.968	-0.01053
758.278	-0.01039
758.588	-0.01035
758.898	-0.01049
759.208	-0.0103
759.517	-0.01025
759.827	-0.01057
760.137	-0.01061
760.447	-0.0103
760.756	-0.01018
761.066	-0.01032
761.375	-0.01073
761.685	-0.0109
761.994	-0.01058
762.304	-0.01066
762.613	-0.0103
762.922	-0.01022
763.232	-0.01049
763.541	-0.01033
763.85	-0.01042
764.159	-0.0103
764.468	-0.01009
764.777	-0.01009
765.086	-0.01018
765.395	-0.01005
765.704	-0.00997
766.013	-0.00985
766.321	-0.00954
766.63	-0.00968
766.939	-0.00963
767.247	-0.0099
767.556	-0.00987
767.864	-0.00963
768.173	-0.00936
768.481	-0.00954
768.789	-0.00949
769.098	-0.00969
769.406	-0.00949
769.714	-0.0092
770.022	-0.0093
770.33	-0.00922
770.638	-0.00915
770.946	-0.00934
771.254	-0.00935
771.562	-0.00908
771.87	-0.00917
772.178	-0.00943
772.486	-0.00949
772.793	-0.00945
773.101	-0.00934
773.408	-0.00945
773.716	-0.00951
774.023	-0.00953
774.331	-0.00973
774.638	-0.00966
774.946	-0.0094
775.253	-0.00921
775.56	-0.00916
775.867	-0.00945
776.174	-0.00951
776.481	-0.00938
776.788	-0.00958
777.095	-0.00965
777.402	-0.00993
777.709	-0.00979
778.016	-0.01016
778.323	-0.01019
778.63	-0.00999
778.936	-0.00996
779.243	-0.01012
779.549	-0.01015
779.856	-0.01007
780.162	-0.00988
780.469	-0.00998
780.775	-0.01011
781.082	-0.0102
781.388	-0.01022
781.694	-0.01013
782	-0.01031
782.306	-0.01036
782.612	-0.01043
782.918	-0.01064
783.224	-0.01064
783.53	-0.01067
783.836	-0.01038
784.142	-0.01033
784.448	-0.01008
784.753	-0.00972
785.059	-0.00989
785.365	-0.00989
785.67	-0.00982
785.976	-0.0096
786.281	-0.00984
786.586	-0.00963
786.892	-0.00944
787.197	-0.00921
787.502	-0.00909
787.808	-0.0093
788.113	-0.00934
788.418	-0.0088
788.723	-0.00855
789.028	-0.00844
789.333	-0.0083
789.638	-0.00853
789.942	-0.00849
790.247	-0.00873
790.552	-0.00848
790.857	-0.0087
791.161	-0.00896
791.466	-0.00898
791.77	-0.0089
792.075	-0.00892
792.379	-0.00893
792.684	-0.00876
792.988	-0.00921
793.292	-0.00907
793.597	-0.00954
793.901	-0.00973
794.205	-0.00946
794.509	-0.00997
794.813	-0.01051
795.117	-0.0106
795.421	-0.01042
795.725	-0.01048
796.029	-0.01022
796.332	-0.01015
796.636	-0.00989
796.94	-0.01024
797.243	-0.0102
797.547	-0.00992
797.85	-0.01028
798.154	-0.01016
798.457	-0.00995
798.761	-0.01011
799.064	-0.01012
799.367	-0.01003
799.67	-0.01011
799.973	-0.00958
800.277	-0.00934
800.58	-0.00934
800.883	-0.00886
801.186	-0.00911
801.488	-0.00881
801.791	-0.0087
802.094	-0.00891
802.397	-0.00891
802.699	-0.00889
803.002	-0.0089
803.305	-0.00868
803.607	-0.0086
803.91	-0.00893
804.212	-0.00841
804.515	-0.00837
804.817	-0.00831
805.119	-0.00813
805.421	-0.00831
805.724	-0.0083
806.026	-0.00846
806.328	-0.00906
806.63	-0.00908
806.932	-0.00916
807.234	-0.00938
807.535	-0.00896
807.837	-0.00969
808.139	-0.01012
808.441	-0.00951
808.742	-0.00921
809.044	-0.00903
809.346	-0.00925
809.647	-0.00932
809.948	-0.0092
810.25	-0.00896
810.551	-0.00886
810.853	-0.00902
811.154	-0.009
811.455	-0.00964
811.756	-0.00962
812.057	-0.00929
812.358	-0.00922
812.659	-0.00849
812.96	-0.00853
813.261	-0.00858
813.562	-0.00855
813.863	-0.00844
814.163	-0.00779
814.464	-0.00712
814.765	-0.00792
815.065	-0.00814
815.366	-0.00831
815.666	-0.00819
815.967	-0.00797
816.267	-0.00823
816.567	-0.00847
816.868	-0.00898
817.168	-0.00869
817.468	-0.00891
817.768	-0.00788
818.068	-0.00746
818.368	-0.00749
818.668	-0.00646
818.968	-0.00682
819.268	-0.00657
819.568	-0.00655
819.867	-0.00639
820.167	-0.00601
820.467	-0.00605
820.766	-0.00634
821.066	-0.00574
821.365	-0.00541
821.665	-0.00563
821.964	-0.00588
822.263	-0.00651
822.563	-0.00571
822.862	-0.00516
823.161	-0.00492
823.46	-0.00498
823.759	-0.00532
824.058	-0.00599
824.357	-0.006
824.656	-0.00587
824.955	-0.00667
825.254	-0.00646
825.552	-0.00671
825.851	-0.00686
826.15	-0.00679
826.448	-0.00714
826.747	-0.00691
827.045	-0.00768
827.344	-0.00759
827.642	-0.00817
827.941	-0.00777
828.239	-0.00738
828.537	-0.00702
828.835	-0.00735
829.133	-0.00809
829.432	-0.00802
829.73	-0.00751
830.028	-0.00718
830.325	-0.00706
830.623	-0.00722
830.921	-0.00718
831.219	-0.00706
831.517	-0.00726
831.814	-0.00745
832.112	-0.0069
832.409	-0.00746
832.707	-0.00703
833.004	-0.00662
833.302	-0.00569
833.599	-0.00622
833.896	-0.00526
834.194	-0.00499
834.491	-0.00408
834.788	-0.0038
835.085	-0.00384
835.382	-0.00348
835.679	-0.00335
835.976	-0.00443
836.273	-0.00445
836.57	-0.00487
836.866	-0.00416
837.163	-0.00406
837.46	-0.00517
837.756	-0.0044
838.053	-0.00358
838.349	-0.00258
838.646	-0.00186
838.942	-0.00183
839.239	-0.00327
839.535	-0.0024
839.831	-0.00254
840.127	-0.00396
840.423	-0.00399
840.72	-0.00456
841.016	-0.00567
841.312	-0.00575
841.607	-0.00541
841.903	-0.00502
842.199	-0.00458
842.495	-0.00341
842.791	-0.00355
843.086	-0.00372
843.382	-0.00439
843.677	-0.00291
843.973	-0.00231
844.268	-0.00211
844.564	-0.00327
844.859	-0.00342
845.154	-0.00438
845.45	-0.00287
845.745	-0.00393
846.04	-0.00221
846.335	-0.00047
846.63	-0.00022
846.925	-0.00004
847.22	0.00084
847.515	0.00141
847.81	0.00277
848.104	0.00335
848.399	0.00394
848.694	0.00262
848.988	0.00524
849.283	0.00817
849.578	0.00972
849.872	0.01129
850.166	0.01052
850.461	0.00736
850.755	0.00564
851.049	0.00621
851.343	0.00563
851.638	0.00568
851.932	0.00789
852.226	0.00664
852.52	0.00518
852.814	0.00482
853.107	0.0038
853.401	0.00627
853.695	0.00485
853.989	0.00141
854.282	0.00069
854.576	-0.00086
854.869	-0.00018
855.163	-0.00322
855.456	-0.00866
855.75	-0.01027
856.043	-0.0147
856.336	-0.01412
856.63	-0.01169
856.923	-0.0092
857.216	-0.00486
857.509	-0.00331
857.802	-0.00879
858.095	-0.00889
858.388	-0.00574
858.681	-0.00801
858.974	-0.00749
859.266	-0.00472
859.559	-0.00626
859.852	-0.00493
860.144	-0.00386
860.437	-0.00529
860.729	-0.00095
861.022	-0.00233
861.314	-0.00459
861.606	-0.01005
861.899	-0.01182
862.191	-0.00977
862.483	-0.00849
862.775	-0.01073
863.067	-0.01074
863.359	-0.01481
863.651	-0.01247
863.943	-0.00692
864.235	-0.0077
864.527	-0.01231
864.819	-0.00794
865.11	-0.00761
865.402	-0.01015
865.693	-0.0096
865.985	-0.01098
866.276	-0.00931
866.568	-0.00902
866.859	-0.00553
867.151	-0.00101
867.442	0.00238
867.733	0.01014
868.024	0.01145
868.315	0.01302
868.606	0.006
868.897	0.00503
869.188	0.00323
869.479	0.00111
869.77	-0.00344
870.061	-0.00311
870.351	-0.00501
870.642	-0.00291
870.933	-0.00317
871.223	-0.00631
871.514	-0.00742
871.804	-0.00764
872.095	-0.00819
872.385	-0.0098
872.675	-0.00792
