Data from AuNP_532nm_50mJ_30min_Absorbance_13-25-14-642.txt Node
Date: Mon Jan 23 13:25:14 EST 2023
User: UV-vis
Spectrometer: FLMS04918
Trigger mode: 0
Integration Time (sec): 1.002000E-2
Scans to average: 10
Electric dark correction enabled: true
Nonlinearity correction enabled: false
Boxcar width: 10
XAxis mode: Wavelengths
Number of Pixels in Spectrum: 2048
>>>>>Begin Spectral Data<<<<<
179.23	-0.18928
179.611	-0.10347
179.992	-0.13672
180.373	-0.10731
180.754	-0.11789
181.134	-0.25824
181.515	-0.25492
181.896	-0.21192
182.276	-0.17812
182.657	-0.3793
183.038	-0.36987
183.418	-0.50268
183.799	-0
184.179	-0.00096
184.56	-0.01579
184.94	-0.02468
185.32	-0.024
185.701	-0.02303
186.081	-0.02274
186.461	-0.0251
186.842	-0.02629
187.222	-0.02769
187.602	-0.02756
187.982	-0.02939
188.362	-0.02907
188.742	-0.0294
189.122	-0.03017
189.502	-0.03057
189.882	-0.03141
190.262	-0.03089
190.642	-0.03172
191.022	-0.0319
191.402	-0.03266
191.781	-0.03315
192.161	-0.03378
192.541	-0.03457
192.92	-0.03539
193.3	-0.03653
193.68	-0.03724
194.059	-0.03844
194.439	-0.03858
194.818	-0.03955
195.198	-0.03979
195.577	-0.04106
195.957	-0.04163
196.336	-0.0428
196.715	-0.04388
197.094	-0.04548
197.474	-0.04721
197.853	-0.04772
198.232	-0.04994
198.611	-0.05144
198.99	-0.05307
199.369	-0.05429
199.748	-0.05604
200.127	-0.05786
200.506	-0.05931
200.885	-0.06102
201.264	-0.06244
201.643	-0.06375
202.022	-0.06535
202.401	-0.06778
202.779	-0.06944
203.158	-0.07211
203.537	-0.07451
203.915	-0.07655
204.294	-0.07865
204.673	-0.08088
205.051	-0.08329
205.43	-0.08501
205.808	-0.08788
206.187	-0.09062
206.565	-0.09326
206.943	-0.0959
207.322	-0.09937
207.7	-0.10299
208.078	-0.10615
208.456	-0.11077
208.835	-0.11474
209.213	-0.12052
209.591	-0.1277
209.969	-0.13727
210.347	-0.15063
210.725	-0.16938
211.103	-0.19445
211.481	-0.22623
211.859	-0.26577
212.237	-0.31138
212.614	-0.36069
212.992	-0.41299
213.37	-0.46848
213.748	-0.52438
214.125	-0.57879
214.503	-0.63413
214.881	-0.68788
215.258	-0.73997
215.636	-0.78973
216.013	-0.83852
216.391	-0.88417
216.768	-0.92846
217.145	-0.97049
217.523	-1.0124
217.9	-1.052
218.277	-1.08988
218.655	-1.1257
219.032	-1.159
219.409	-1.18923
219.786	-1.21738
220.163	-1.24351
220.54	-1.26826
220.917	-1.29103
221.294	-1.31135
221.671	-1.32968
222.048	-1.34641
222.425	-1.36063
222.802	-1.37426
223.179	-1.38596
223.556	-1.39618
223.932	-1.40519
224.309	-1.41411
224.686	-1.42184
225.062	-1.42832
225.439	-1.4333
225.815	-1.43776
226.192	-1.44092
226.568	-1.44352
226.945	-1.44546
227.321	-1.44749
227.698	-1.44894
228.074	-1.44964
228.45	-1.44976
228.827	-1.44915
229.203	-1.44883
229.579	-1.44827
229.955	-1.44764
230.331	-1.44722
230.707	-1.44642
231.083	-1.44574
231.46	-1.44584
231.835	-1.4455
232.211	-1.44492
232.587	-1.4443
232.963	-1.44345
233.339	-1.44263
233.715	-1.44213
234.091	-1.44138
234.466	-1.44008
234.842	-1.43938
235.218	-1.43855
235.593	-1.43786
235.969	-1.43656
236.344	-1.43619
236.72	-1.43551
237.095	-1.43463
237.471	-1.43359
237.846	-1.43266
238.222	-1.43168
238.597	-1.4309
238.972	-1.42966
239.348	-1.42819
239.723	-1.42694
240.098	-1.42533
240.473	-1.42403
240.848	-1.42273
241.223	-1.42131
241.598	-1.41982
241.973	-1.41826
242.348	-1.4171
242.723	-1.41566
243.098	-1.41422
243.473	-1.41255
243.848	-1.41119
244.223	-1.40914
244.597	-1.40745
244.972	-1.40607
245.347	-1.4039
245.721	-1.4022
246.096	-1.40053
246.47	-1.39859
246.845	-1.39671
247.219	-1.39505
247.594	-1.39308
247.968	-1.39108
248.343	-1.38917
248.717	-1.38712
249.091	-1.38482
249.466	-1.38234
249.84	-1.37984
250.214	-1.37783
250.588	-1.37513
250.962	-1.3724
251.336	-1.36988
251.71	-1.36782
252.084	-1.36497
252.458	-1.3626
252.832	-1.35993
253.206	-1.35769
253.58	-1.35484
253.954	-1.35231
254.328	-1.3492
254.702	-1.34666
255.075	-1.34371
255.449	-1.34116
255.823	-1.33847
256.196	-1.33539
256.57	-1.33298
256.943	-1.33011
257.317	-1.32747
257.69	-1.32531
258.064	-1.3222
258.437	-1.31962
258.81	-1.31708
259.184	-1.31461
259.557	-1.31158
259.93	-1.30945
260.303	-1.30653
260.677	-1.30354
261.05	-1.30072
261.423	-1.29839
261.796	-1.29513
262.169	-1.29261
262.542	-1.2894
262.915	-1.28594
263.288	-1.28292
263.661	-1.27968
264.033	-1.27676
264.406	-1.27341
264.779	-1.2702
265.152	-1.26682
265.524	-1.26285
265.897	-1.25925
266.27	-1.25566
266.642	-1.25184
267.015	-1.24759
267.387	-1.24376
267.76	-1.23947
268.132	-1.23572
268.504	-1.23173
268.877	-1.22788
269.249	-1.22331
269.621	-1.21884
269.994	-1.21409
270.366	-1.20918
270.738	-1.2048
271.11	-1.19978
271.482	-1.19462
271.854	-1.18924
272.226	-1.18394
272.598	-1.17878
272.97	-1.17288
273.342	-1.16688
273.714	-1.16083
274.086	-1.15431
274.458	-1.14756
274.829	-1.14052
275.201	-1.13298
275.573	-1.12496
275.944	-1.11652
276.316	-1.10792
276.688	-1.09805
277.059	-1.0876
277.431	-1.0748
277.802	-1.05825
278.173	-1.03521
278.545	-1.00052
278.916	-0.95125
279.287	-0.88438
279.659	-0.801
280.03	-0.70954
280.401	-0.62512
280.772	-0.55469
281.143	-0.49419
281.515	-0.44117
281.886	-0.394
282.257	-0.35156
282.628	-0.31302
282.998	-0.27769
283.369	-0.24512
283.74	-0.2149
284.111	-0.18672
284.482	-0.16043
284.853	-0.13578
285.223	-0.11278
285.594	-0.0914
285.965	-0.07184
286.335	-0.05454
286.706	-0.03998
287.076	-0.029
287.447	-0.02239
287.817	-0.02018
288.188	-0.02018
288.558	-0.02018
288.928	-0.02018
289.299	-0.02018
289.669	-0.02018
290.039	-0.02018
290.409	-0.02018
290.779	-0.02018
291.149	-0.02018
291.52	-0.02018
291.89	-0.02018
292.26	-0.02018
292.629	-0.02018
292.999	-0.02018
293.369	-0.02018
293.739	-0.02018
294.109	-0.02018
294.479	-0.02018
294.848	-0.02018
295.218	-0.02018
295.588	-0.02018
295.957	-0.02018
296.327	-0.02018
296.696	-0.02018
297.066	-0.02018
297.435	-0.02018
297.805	-0.02018
298.174	-0.02018
298.544	-0.02018
298.913	-0.02018
299.282	-0.02018
299.651	-0.02018
300.021	-0.02018
300.39	-0.02018
300.759	-0.02018
301.128	-0.02018
301.497	-0.02018
301.866	-0.02018
302.235	-0.02018
302.604	-0.02018
302.973	-0.02018
303.342	-0.02018
303.71	-0.02018
304.079	-0.02018
304.448	-0.02018
304.817	-0.02018
305.185	-0.02018
305.554	-0.02018
305.923	-0.02018
306.291	-0.02018
306.66	-0.02018
307.028	-0.02018
307.397	-0.02018
307.765	-0.02018
308.133	-0.02018
308.502	-0.02018
308.87	-0.02018
309.238	-0.02018
309.606	-0.02018
309.975	-0.02018
310.343	-0.02018
310.711	-0.02018
311.079	-0.02018
311.447	-0.02018
311.815	-0.02018
312.183	-0.02018
312.551	-0.02018
312.919	-0.02018
313.286	-0.02018
313.654	-0.02018
314.022	-0.02018
314.39	-0.02018
314.757	-0.02018
315.125	-0.02018
315.492	-0.02018
315.86	-0.02018
316.228	-0.02018
316.595	-0.02018
316.962	-0.02018
317.33	-0.02018
317.697	-0.02018
318.065	-0.02018
318.432	-0.02018
318.799	-0.02018
319.166	-0.02018
319.534	-0.02018
319.901	-0.02018
320.268	-0.02018
320.635	-0.02018
321.002	-0.02018
321.369	-0.02019
321.736	-0.02019
322.103	-0.02019
322.47	-0.02018
322.836	-0.02018
323.203	-0.02019
323.57	-0.02019
323.937	-0.02019
324.303	-0.02019
324.67	-0.02019
325.037	-0.02019
325.403	-0.02019
325.77	-0.02019
326.136	-0.02019
326.503	-0.02019
326.869	-0.02019
327.235	-0.02019
327.602	-0.02019
327.968	-0.02019
328.334	-0.02019
328.7	-0.02019
329.067	-0.02018
329.433	-0.02018
329.799	-0.02018
330.165	-0.02018
330.531	-0.02018
330.897	-0.02018
331.263	-0.02018
331.629	-0.02019
331.995	-0.02019
332.36	-0.02019
332.726	-0.02018
333.092	-0.02019
333.458	-0.02019
333.823	-0.02018
334.189	-0.02018
334.554	-0.02018
334.92	-0.02019
335.286	-0.02018
335.651	-0.02019
336.016	-0.02019
336.382	-0.02019
336.747	-0.02019
337.113	-0.02019
337.478	-0.02019
337.843	-0.02019
338.208	-0.02019
338.573	-0.02019
338.939	-0.02019
339.304	-0.02019
339.669	-0.02019
340.034	-0.02019
340.399	-0.02019
340.764	-0.02019
341.129	-0.02019
341.493	-0.02019
341.858	-0.02019
342.223	-0.02019
342.588	-0.02019
342.952	-0.02019
343.317	-0.02019
343.682	-0.02019
344.046	-0.02019
344.411	-0.02019
344.775	-0.02019
345.14	-0.02019
345.504	-0.02019
345.869	-0.02019
346.233	-0.02019
346.597	-0.02019
346.962	-0.02019
347.326	-0.02019
347.69	-0.02019
348.054	-0.02019
348.418	-0.02019
348.782	-0.02019
349.146	-0.02019
349.51	-0.02019
349.874	-0.02019
350.238	-0.02019
350.602	-0.02019
350.966	-0.02019
351.33	-0.02018
351.693	-0.02018
352.057	-0.02018
352.421	-0.02018
352.784	-0.02018
353.148	-0.02018
353.512	-0.02018
353.875	-0.02019
354.239	-0.02019
354.602	-0.02019
354.966	-0.02019
355.329	-0.02019
355.692	-0.02019
356.056	-0.02019
356.419	-0.02019
356.782	-0.02019
357.145	-0.02019
357.508	-0.02019
357.871	-0.02019
358.234	-0.02019
358.597	-0.02019
358.96	-0.02019
359.323	-0.02019
359.686	-0.02019
360.049	-0.02019
360.412	-0.02019
360.775	-0.02019
361.137	-0.02019
361.5	-0.02019
361.863	-0.02019
362.225	-0.02019
362.588	-0.02019
362.951	-0.02019
363.313	-0.02019
363.675	-0.02019
364.038	-0.02019
364.4	-0.02019
364.763	-0.02019
365.125	-0.02019
365.487	-0.02019
365.849	-0.02019
366.212	-0.02019
366.574	-0.02019
366.936	-0.02019
367.298	-0.02019
367.66	-0.02019
368.022	-0.02019
368.384	-0.02019
368.746	-0.02019
369.108	-0.02019
369.469	-0.02019
369.831	-0.02019
370.193	-0.02019
370.555	-0.02019
370.916	-0.02019
371.278	-0.02019
371.64	-0.02019
372.001	-0.02019
372.363	-0.02019
372.724	-0.02019
373.086	-0.02019
373.447	-0.02019
373.808	-0.02019
374.17	-0.02019
374.531	-0.02019
374.892	-0.02019
375.253	-0.02019
375.615	-0.02019
375.976	-0.02019
376.337	-0.02019
376.698	-0.02019
377.059	-0.02019
377.42	-0.02019
377.781	-0.02019
378.141	-0.02019
378.502	-0.02019
378.863	-0.02019
379.224	-0.02019
379.585	-0.02019
379.945	-0.02019
380.306	-0.02019
380.666	-0.02019
381.027	-0.02019
381.388	-0.02019
381.748	-0.02019
382.108	-0.02019
382.469	-0.02019
382.829	-0.02019
383.19	-0.02019
383.55	-0.02019
383.91	-0.02019
384.27	-0.02019
384.63	-0.02019
384.991	-0.02019
385.351	-0.02019
385.711	-0.02019
386.071	-0.02019
386.431	-0.02019
386.791	-0.02019
387.15	-0.02019
387.51	-0.02019
387.87	-0.02019
388.23	-0.02019
388.589	-0.02019
388.949	-0.02019
389.309	-0.02019
389.668	-0.02019
390.028	-0.02019
390.387	-0.02019
390.747	-0.02019
391.106	-0.02019
391.466	-0.02019
391.825	-0.02019
392.184	-0.02019
392.544	-0.02019
392.903	-0.02019
393.262	-0.02019
393.621	-0.02019
393.98	-0.02019
394.339	-0.02019
394.698	-0.02019
395.057	-0.02019
395.416	-0.02019
395.775	-0.02019
396.134	-0.02019
396.493	-0.02019
396.852	-0.02019
397.211	-0.02019
397.569	-0.02019
397.928	-0.02019
398.287	-0.02019
398.645	-0.02019
399.004	-0.02019
399.362	-0.02019
399.721	-0.02019
400.079	-0.02019
400.438	-0.02019
400.796	-0.02019
401.154	-0.02019
401.512	-0.02019
401.871	-0.02019
402.229	-0.02019
402.587	-0.02019
402.945	-0.02019
403.303	-0.02019
403.661	-0.02019
404.019	-0.02019
404.377	-0.02019
404.735	-0.02019
405.093	-0.02019
405.451	-0.02019
405.808	-0.02019
406.166	-0.02019
406.524	-0.02019
406.882	-0.02019
407.239	-0.02019
407.597	-0.02019
407.954	-0.02019
408.312	-0.02019
408.669	-0.02019
409.027	-0.02019
409.384	-0.02019
409.741	-0.02019
410.099	-0.02019
410.456	-0.02019
410.813	-0.02019
411.17	-0.02019
411.527	-0.02019
411.884	-0.02019
412.242	-0.02019
412.599	-0.02019
412.956	-0.02019
413.312	-0.02019
413.669	-0.02019
414.026	-0.02019
414.383	-0.02019
414.74	-0.02019
415.096	-0.02019
415.453	-0.02019
415.81	-0.02019
416.166	-0.02019
416.523	-0.02019
416.879	-0.02019
417.236	-0.02019
417.592	-0.02019
417.949	-0.02019
418.305	-0.02019
418.661	-0.02019
419.018	-0.02019
419.374	-0.02019
419.73	-0.02019
420.086	-0.02019
420.442	-0.02019
420.798	-0.02019
421.154	-0.02019
421.51	-0.02019
421.866	-0.02019
422.222	-0.01995
422.578	-0.01914
422.934	-0.01764
423.29	-0.01575
423.646	-0.0134
424.001	-0.01047
424.357	-0.0068
424.713	-0.00279
425.068	0.00151
425.424	0.00595
425.779	0.01042
426.135	0.0145
426.49	0.0183
426.845	0.02252
427.201	0.02676
427.556	0.03174
427.911	0.0368
428.266	0.04245
428.622	0.04834
428.977	0.05422
429.332	0.05967
429.687	0.06445
430.042	0.06776
430.397	0.07015
430.752	0.07265
431.107	0.07448
431.461	0.07544
431.816	0.07558
432.171	0.07527
432.526	0.07462
432.88	0.07407
433.235	0.07394
433.59	0.07432
433.944	0.07555
434.299	0.07676
434.653	0.07845
435.008	0.07959
435.362	0.08139
435.716	0.08304
436.071	0.08511
436.425	0.08772
436.779	0.09092
437.133	0.09507
437.487	0.10003
437.841	0.10544
438.195	0.11038
438.549	0.11559
438.903	0.12124
439.257	0.12698
439.611	0.13289
439.965	0.13891
440.319	0.14504
440.673	0.15065
441.026	0.15632
441.38	0.1615
441.734	0.16601
442.087	0.17012
442.441	0.17381
442.794	0.17641
443.148	0.17847
443.501	0.17986
443.855	0.1802
444.208	0.18018
444.561	0.17912
444.915	0.1778
445.268	0.17616
445.621	0.17418
445.974	0.17192
446.327	0.16917
446.68	0.16589
447.033	0.16244
447.386	0.15923
447.739	0.15557
448.092	0.15226
448.445	0.14872
448.798	0.14528
449.15	0.14213
449.503	0.13893
449.856	0.13574
450.209	0.13303
450.561	0.13042
450.914	0.12762
451.266	0.12554
451.619	0.12376
451.971	0.12254
452.323	0.12164
452.676	0.12072
453.028	0.12036
453.38	0.1199
453.733	0.11956
454.085	0.1196
454.437	0.12059
454.789	0.12099
455.141	0.12151
455.493	0.12212
455.845	0.12271
456.197	0.12316
456.549	0.12402
456.901	0.12465
457.253	0.12543
457.604	0.12618
457.956	0.12695
458.308	0.12776
458.659	0.12858
459.011	0.12915
459.362	0.12972
459.714	0.13043
460.065	0.13095
460.417	0.13137
460.768	0.13198
461.12	0.13248
461.471	0.13319
461.822	0.13313
462.173	0.13355
462.525	0.13345
462.876	0.13341
463.227	0.1339
463.578	0.13423
463.929	0.13436
464.28	0.13471
464.631	0.13462
464.982	0.13445
465.332	0.13444
465.683	0.13429
466.034	0.13401
466.385	0.13376
466.735	0.13336
467.086	0.13278
467.437	0.13244
467.787	0.13169
468.138	0.1309
468.488	0.13037
468.839	0.13003
469.189	0.12926
469.539	0.12833
469.89	0.12796
470.24	0.1271
470.59	0.12613
470.94	0.12521
471.29	0.12365
471.64	0.12228
471.99	0.12094
472.34	0.11923
472.69	0.11739
473.04	0.1157
473.39	0.11383
473.74	0.11214
474.09	0.1099
474.439	0.10785
474.789	0.10536
475.139	0.1032
475.488	0.10053
475.838	0.09808
476.188	0.09486
476.537	0.09183
476.886	0.089
477.236	0.08595
477.585	0.08297
477.935	0.07975
478.284	0.07666
478.633	0.07372
478.982	0.07061
479.331	0.06773
479.68	0.06507
480.03	0.06221
480.379	0.05923
480.728	0.05625
481.076	0.05328
481.425	0.05068
481.774	0.04776
482.123	0.04508
482.472	0.04215
482.821	0.03988
483.169	0.03733
483.518	0.03523
483.866	0.03329
484.215	0.0314
484.563	0.02963
484.912	0.02803
485.26	0.02648
485.609	0.02495
485.957	0.02364
486.305	0.0224
486.654	0.02122
487.002	0.02012
487.35	0.01919
487.698	0.01838
488.046	0.01766
488.394	0.01697
488.742	0.01637
489.09	0.01605
489.438	0.01581
489.786	0.01571
490.134	0.01554
490.482	0.01545
490.829	0.01541
491.177	0.01534
491.525	0.01523
491.872	0.01522
492.22	0.01519
492.567	0.01524
492.915	0.0153
493.262	0.01537
493.61	0.01534
493.957	0.01546
494.304	0.01551
494.652	0.0155
494.999	0.01556
495.346	0.01551
495.693	0.01547
496.04	0.01558
496.387	0.0155
496.734	0.01542
497.081	0.01529
497.428	0.01519
497.775	0.01505
498.122	0.01474
498.469	0.0146
498.816	0.01431
499.162	0.01404
499.509	0.01368
499.856	0.01326
500.202	0.01283
500.549	0.01234
500.895	0.01188
501.242	0.01131
501.588	0.01071
501.935	0.01009
502.281	0.00943
502.627	0.00876
502.973	0.00805
503.32	0.00718
503.666	0.00641
504.012	0.00561
504.358	0.00482
504.704	0.00386
505.05	0.00295
505.396	0.00209
505.742	0.00104
506.088	0.0001
506.433	-0.00095
506.779	-0.00198
507.125	-0.00303
507.471	-0.00405
507.816	-0.00511
508.162	-0.00628
508.507	-0.00738
508.853	-0.00848
509.198	-0.00959
509.544	-0.01064
509.889	-0.01159
510.234	-0.01253
510.58	-0.0134
510.925	-0.01424
511.27	-0.01502
511.615	-0.01577
511.96	-0.0164
512.306	-0.01702
512.651	-0.0176
512.996	-0.01808
513.341	-0.01856
513.685	-0.01895
514.03	-0.01931
514.375	-0.01955
514.72	-0.01983
515.065	-0.02002
515.409	-0.02009
515.754	-0.02017
516.099	-0.02019
516.443	-0.02019
516.788	-0.02019
517.132	-0.02019
517.476	-0.02019
517.821	-0.02019
518.165	-0.02019
518.51	-0.02019
518.854	-0.02019
519.198	-0.02019
519.542	-0.02019
519.886	-0.02019
520.23	-0.02019
520.574	-0.02019
520.918	-0.02019
521.262	-0.02019
521.606	-0.02019
521.95	-0.02019
522.294	-0.02019
522.638	-0.02019
522.981	-0.02019
523.325	-0.02019
523.669	-0.02019
524.012	-0.02019
524.356	-0.02019
524.699	-0.02019
525.043	-0.02019
525.386	-0.02019
525.73	-0.02019
526.073	-0.02019
526.416	-0.02019
526.76	-0.02019
527.103	-0.02019
527.446	-0.02019
527.789	-0.02019
528.132	-0.02019
528.475	-0.02019
528.818	-0.02019
529.161	-0.02019
529.504	-0.02019
529.847	-0.02019
530.19	-0.02019
530.532	-0.02019
530.875	-0.02019
531.218	-0.02019
531.56	-0.02019
531.903	-0.02019
532.246	-0.02019
532.588	-0.02019
532.93	-0.02019
533.273	-0.02019
533.615	-0.02019
533.958	-0.02019
534.3	-0.02019
534.642	-0.02019
534.984	-0.02019
535.326	-0.02019
535.669	-0.02019
536.011	-0.02019
536.353	-0.02019
536.695	-0.02019
537.037	-0.02019
537.378	-0.02019
537.72	-0.02019
538.062	-0.02019
538.404	-0.02019
538.746	-0.02019
539.087	-0.02019
539.429	-0.02019
539.77	-0.02019
540.112	-0.02019
540.454	-0.02019
540.795	-0.02019
541.136	-0.02019
541.478	-0.02019
541.819	-0.02019
542.16	-0.02019
542.502	-0.02019
542.843	-0.02019
543.184	-0.02019
543.525	-0.02019
543.866	-0.02019
544.207	-0.02019
544.548	-0.02019
544.889	-0.02019
545.23	-0.02019
545.571	-0.02019
545.911	-0.02019
546.252	-0.02019
546.593	-0.02019
546.934	-0.02019
547.274	-0.02019
547.615	-0.02019
547.955	-0.02019
548.296	-0.02019
548.636	-0.02019
548.977	-0.02019
549.317	-0.02019
549.657	-0.02019
549.997	-0.02019
550.338	-0.02019
550.678	-0.02019
551.018	-0.02019
551.358	-0.02019
551.698	-0.02019
552.038	-0.02019
552.378	-0.02019
552.718	-0.02019
553.058	-0.02019
553.398	-0.02019
553.737	-0.02019
554.077	-0.02019
554.417	-0.02019
554.756	-0.02019
555.096	-0.02019
555.435	-0.02019
555.775	-0.02019
556.114	-0.02019
556.454	-0.02019
556.793	-0.02019
557.133	-0.02019
557.472	-0.02019
557.811	-0.02019
558.15	-0.02019
558.489	-0.02019
558.829	-0.02019
559.168	-0.02019
559.507	-0.02019
559.846	-0.02019
560.184	-0.02019
560.523	-0.02019
560.862	-0.02019
561.201	-0.02019
561.54	-0.02019
561.878	-0.02019
562.217	-0.02019
562.556	-0.02019
562.894	-0.02019
563.233	-0.02019
563.571	-0.02019
563.91	-0.02019
564.248	-0.02019
564.586	-0.02019
564.925	-0.02019
565.263	-0.02019
565.601	-0.02019
565.939	-0.02019
566.277	-0.02019
566.616	-0.02019
566.954	-0.02019
567.292	-0.02019
567.63	-0.02019
567.967	-0.02019
568.305	-0.02019
568.643	-0.02019
568.981	-0.02019
569.319	-0.02019
569.656	-0.02019
569.994	-0.02019
570.331	-0.02019
570.669	-0.02019
571.006	-0.02019
571.344	-0.02019
571.681	-0.02019
572.019	-0.02019
572.356	-0.02019
572.693	-0.02019
573.03	-0.02019
573.368	-0.02019
573.705	-0.02019
574.042	-0.02019
574.379	-0.02019
574.716	-0.02019
575.053	-0.02019
575.39	-0.02019
575.727	-0.02019
576.063	-0.02019
576.4	-0.02019
576.737	-0.02019
577.074	-0.02019
577.41	-0.02019
577.747	-0.02019
578.083	-0.02019
578.42	-0.02019
578.756	-0.02019
579.093	-0.02019
579.429	-0.02019
579.766	-0.02019
580.102	-0.02019
580.438	-0.02019
580.774	-0.02019
581.11	-0.02019
581.446	-0.02019
581.782	-0.02019
582.119	-0.02019
582.454	-0.02019
582.79	-0.02019
583.126	-0.02019
583.462	-0.02019
583.798	-0.02019
584.134	-0.02019
584.469	-0.02019
584.805	-0.02019
585.141	-0.02019
585.476	-0.02019
585.812	-0.02019
586.147	-0.02019
586.482	-0.02019
586.818	-0.02019
587.153	-0.02019
587.488	-0.02019
587.824	-0.02019
588.159	-0.02019
588.494	-0.02019
588.829	-0.02019
589.164	-0.02019
589.499	-0.02019
589.834	-0.02019
590.169	-0.02019
590.504	-0.02019
590.839	-0.02019
591.174	-0.02019
591.508	-0.02019
591.843	-0.02019
592.178	-0.02019
592.512	-0.02019
592.847	-0.02019
593.181	-0.02019
593.516	-0.02019
593.85	-0.02019
594.185	-0.02019
594.519	-0.02019
594.853	-0.02019
595.187	-0.02019
595.522	-0.02019
595.856	-0.02019
596.19	-0.02019
596.524	-0.02019
596.858	-0.02019
597.192	-0.02019
597.526	-0.02019
597.86	-0.02019
598.194	-0.02019
598.527	-0.02019
598.861	-0.02019
599.195	-0.02019
599.528	-0.02019
599.862	-0.02019
600.196	-0.02019
600.529	-0.02019
600.863	-0.02019
601.196	-0.02019
601.529	-0.02019
601.863	-0.02019
602.196	-0.02019
602.529	-0.02019
602.862	-0.02019
603.196	-0.02019
603.529	-0.02019
603.862	-0.02019
604.195	-0.02019
604.528	-0.02019
604.861	-0.02019
605.193	-0.02019
605.526	-0.02019
605.859	-0.02019
606.192	-0.02019
606.524	-0.02019
606.857	-0.02019
607.19	-0.02019
607.522	-0.02019
607.855	-0.02019
608.187	-0.02019
608.52	-0.02019
608.852	-0.02019
609.184	-0.02019
609.517	-0.02019
609.849	-0.02019
610.181	-0.02019
610.513	-0.02019
610.845	-0.02019
611.177	-0.02019
611.509	-0.02019
611.841	-0.02019
612.173	-0.02019
612.505	-0.02019
612.837	-0.02019
613.169	-0.02019
613.5	-0.02019
613.832	-0.02019
614.164	-0.02019
614.495	-0.02019
614.827	-0.02019
615.158	-0.02019
615.49	-0.02019
615.821	-0.02019
616.152	-0.02019
616.484	-0.02019
616.815	-0.02019
617.146	-0.02019
617.477	-0.02019
617.808	-0.02019
618.14	-0.02019
618.471	-0.02019
618.802	-0.02019
619.133	-0.02019
619.463	-0.02019
619.794	-0.02019
620.125	-0.02019
620.456	-0.02019
620.787	-0.02019
621.117	-0.02019
621.448	-0.02019
621.778	-0.02019
622.109	-0.02019
622.439	-0.02019
622.77	-0.02019
623.1	-0.02019
623.43	-0.02019
623.761	-0.02019
624.091	-0.02019
624.421	-0.02019
624.751	-0.02019
625.081	-0.02019
625.412	-0.02019
625.742	-0.02019
626.072	-0.02019
626.401	-0.02019
626.731	-0.02019
627.061	-0.02019
627.391	-0.02019
627.721	-0.02019
628.05	-0.02019
628.38	-0.02019
628.71	-0.02019
629.039	-0.02019
629.369	-0.02019
629.698	-0.02019
630.028	-0.02019
630.357	-0.02019
630.686	-0.02019
631.015	-0.02019
631.345	-0.02019
631.674	-0.02019
632.003	-0.02019
632.332	-0.02019
632.661	-0.02019
632.99	-0.02019
633.319	-0.02019
633.648	-0.02019
633.977	-0.02019
634.306	-0.02019
634.634	-0.02019
634.963	-0.02019
635.292	-0.02019
635.62	-0.02019
635.949	-0.02019
636.277	-0.02019
636.606	-0.02019
636.934	-0.02019
637.263	-0.02019
637.591	-0.02019
637.919	-0.02019
638.248	-0.02019
638.576	-0.02019
638.904	-0.02019
639.232	-0.02019
639.56	-0.02019
639.888	-0.02019
640.216	-0.02019
640.544	-0.02019
640.872	-0.02019
641.2	-0.02019
641.528	-0.02019
641.855	-0.02019
642.183	-0.02019
642.511	-0.02019
642.838	-0.02019
643.166	-0.02019
643.493	-0.02019
643.821	-0.02019
644.148	-0.02019
644.475	-0.02019
644.803	-0.02019
645.13	-0.02019
645.457	-0.02019
645.784	-0.02019
646.112	-0.02019
646.439	-0.02019
646.766	-0.02019
647.093	-0.02019
647.42	-0.02019
647.746	-0.02019
648.073	-0.02019
648.4	-0.02019
648.727	-0.02019
649.053	-0.02019
649.38	-0.02019
649.707	-0.02019
650.033	-0.02019
650.36	-0.02019
650.686	-0.02019
651.013	-0.02019
651.339	-0.02019
651.665	-0.02019
651.992	-0.02019
652.318	-0.02019
652.644	-0.02019
652.97	-0.02019
653.296	-0.02019
653.622	-0.02019
653.948	-0.02019
654.274	-0.02019
654.6	-0.02019
654.926	-0.02019
655.252	-0.02019
655.578	-0.02019
655.903	-0.02019
656.229	-0.02019
656.555	-0.02019
656.88	-0.02019
657.206	-0.02019
657.531	-0.02019
657.857	-0.02019
658.182	-0.02019
658.507	-0.02019
658.833	-0.02019
659.158	-0.02019
659.483	-0.02019
659.808	-0.02019
660.133	-0.02019
660.458	-0.02019
660.783	-0.02019
661.108	-0.02019
661.433	-0.02019
661.758	-0.02019
662.083	-0.02019
662.408	-0.02019
662.732	-0.02019
663.057	-0.02019
663.382	-0.02019
663.706	-0.02019
664.031	-0.02019
664.355	-0.02019
664.68	-0.02019
665.004	-0.02019
665.328	-0.02019
665.653	-0.02019
665.977	-0.02019
666.301	-0.02019
666.625	-0.02019
666.949	-0.02019
667.273	-0.02019
667.597	-0.02019
667.921	-0.02019
668.245	-0.02019
668.569	-0.02019
668.893	-0.02019
669.217	-0.02019
669.54	-0.02019
669.864	-0.02019
670.188	-0.02019
670.511	-0.02019
670.835	-0.02019
671.158	-0.02019
671.482	-0.02019
671.805	-0.02019
672.128	-0.02018
672.452	-0.02018
672.775	-0.02018
673.098	-0.02018
673.421	-0.02018
673.744	-0.02018
674.068	-0.02019
674.391	-0.02019
674.714	-0.02019
675.036	-0.02019
675.359	-0.02019
675.682	-0.02019
676.005	-0.02019
676.328	-0.02019
676.65	-0.02019
676.973	-0.02019
677.295	-0.02019
677.618	-0.02019
677.94	-0.02019
678.263	-0.02019
678.585	-0.02019
678.908	-0.02019
679.23	-0.02019
679.552	-0.02019
679.874	-0.02019
680.196	-0.02019
680.519	-0.02019
680.841	-0.02019
681.163	-0.02019
681.485	-0.02019
681.807	-0.02019
682.128	-0.02019
682.45	-0.02019
682.772	-0.02019
683.094	-0.02019
683.415	-0.02019
683.737	-0.02019
684.059	-0.02019
684.38	-0.02019
684.702	-0.02019
685.023	-0.02019
685.344	-0.02019
685.666	-0.02019
685.987	-0.02019
686.308	-0.02019
686.629	-0.02019
686.95	-0.02019
687.272	-0.02019
687.593	-0.02019
687.914	-0.02019
688.235	-0.02019
688.555	-0.02019
688.876	-0.02019
689.197	-0.02019
689.518	-0.02019
689.839	-0.02019
690.159	-0.02019
690.48	-0.02019
690.8	-0.02019
691.121	-0.02019
691.441	-0.02019
691.762	-0.02019
692.082	-0.02019
692.402	-0.02019
692.723	-0.02019
693.043	-0.02018
693.363	-0.02018
693.683	-0.02018
694.003	-0.02018
694.323	-0.02018
694.643	-0.02018
694.963	-0.02018
695.283	-0.02018
695.603	-0.02018
695.923	-0.02018
696.243	-0.02018
696.562	-0.02018
696.882	-0.02018
697.202	-0.02018
697.521	-0.02018
697.841	-0.02018
698.16	-0.02018
698.479	-0.02018
698.799	-0.02019
699.118	-0.02019
699.437	-0.02019
699.757	-0.02019
700.076	-0.02019
700.395	-0.02019
700.714	-0.02019
701.033	-0.02019
701.352	-0.02018
701.671	-0.02019
701.99	-0.02018
702.308	-0.02018
702.627	-0.02018
702.946	-0.02019
703.265	-0.02019
703.583	-0.02019
703.902	-0.02019
704.22	-0.02019
704.539	-0.02019
704.857	-0.02019
705.176	-0.02019
705.494	-0.02018
705.812	-0.02018
706.131	-0.02018
706.449	-0.02018
706.767	-0.02019
707.085	-0.02019
707.403	-0.02019
707.721	-0.02019
708.039	-0.02019
708.357	-0.02019
708.675	-0.02019
708.993	-0.02019
709.31	-0.02019
709.628	-0.02019
709.946	-0.02019
710.263	-0.02018
710.581	-0.02018
710.898	-0.02018
711.216	-0.02018
711.533	-0.02018
711.851	-0.02018
712.168	-0.02018
712.485	-0.02018
712.802	-0.02018
713.12	-0.02018
713.437	-0.02018
713.754	-0.02018
714.071	-0.02018
714.388	-0.02019
714.705	-0.02019
715.022	-0.02019
715.338	-0.02019
715.655	-0.02018
715.972	-0.02018
716.289	-0.02018
716.605	-0.02018
716.922	-0.02019
717.238	-0.02019
717.555	-0.02019
717.871	-0.02019
718.188	-0.02019
718.504	-0.02019
718.82	-0.02019
719.136	-0.02019
719.453	-0.02019
719.769	-0.02019
720.085	-0.02019
720.401	-0.02019
720.717	-0.02018
721.033	-0.02018
721.349	-0.02018
721.665	-0.02018
721.98	-0.02018
722.296	-0.02019
722.612	-0.02019
722.927	-0.02019
723.243	-0.02018
723.559	-0.02018
723.874	-0.02013
724.19	-0.02009
724.505	-0.01999
724.82	-0.01985
725.136	-0.01964
725.451	-0.01937
725.766	-0.01903
726.081	-0.01866
726.396	-0.01821
726.711	-0.01774
727.026	-0.0172
727.341	-0.01662
727.656	-0.01598
727.971	-0.01529
728.286	-0.01453
728.601	-0.01373
728.916	-0.01291
729.23	-0.01206
729.545	-0.01112
729.859	-0.01019
730.174	-0.00921
730.488	-0.00825
730.803	-0.00728
731.117	-0.00633
731.431	-0.0054
731.746	-0.00449
732.06	-0.00369
732.374	-0.0029
732.688	-0.00208
733.002	-0.00134
733.316	-0.00061
733.63	0.00008
733.944	0.00072
734.258	0.00133
734.572	0.00187
734.886	0.00235
735.199	0.00282
735.513	0.00325
735.827	0.0038
736.14	0.00418
736.454	0.00463
736.767	0.00505
737.081	0.00549
737.394	0.00598
737.708	0.00645
738.021	0.00694
738.334	0.00751
738.647	0.00816
738.96	0.00876
739.273	0.00924
739.587	0.00989
739.9	0.01052
740.212	0.01113
740.525	0.01181
740.838	0.01246
741.151	0.01319
741.464	0.01396
741.776	0.01484
742.089	0.01566
742.402	0.01642
742.714	0.01732
743.027	0.01821
743.339	0.01905
743.651	0.01987
743.964	0.0206
744.276	0.02146
744.588	0.02222
744.901	0.0229
745.213	0.02359
745.525	0.02422
745.837	0.02496
746.149	0.02557
746.461	0.02614
746.773	0.02685
747.085	0.02746
747.396	0.02805
747.708	0.02863
748.02	0.02921
748.331	0.0297
748.643	0.03026
748.955	0.03075
749.266	0.03118
749.577	0.03163
749.889	0.03213
750.2	0.03266
750.512	0.03321
750.823	0.03364
751.134	0.03418
751.445	0.03468
751.756	0.03518
752.067	0.03575
752.378	0.03631
752.689	0.03688
753	0.0375
753.311	0.03799
753.622	0.03858
753.932	0.03925
754.243	0.03992
754.554	0.04059
754.864	0.04119
755.175	0.04189
755.485	0.04257
755.796	0.04328
756.106	0.04398
756.417	0.04462
756.727	0.04526
757.037	0.04593
757.347	0.04664
757.658	0.04737
757.968	0.04806
758.278	0.04875
758.588	0.04942
758.898	0.05008
759.208	0.05067
759.517	0.05131
759.827	0.05201
760.137	0.05261
760.447	0.05314
760.756	0.05365
761.066	0.05409
761.375	0.05468
761.685	0.05506
761.994	0.05544
762.304	0.05579
762.613	0.05622
762.922	0.05663
763.232	0.05693
763.541	0.0573
763.85	0.05762
764.159	0.0578
764.468	0.05799
764.777	0.05819
765.086	0.05848
765.395	0.05872
765.704	0.05887
766.013	0.05897
766.321	0.059
766.63	0.05917
766.939	0.05929
767.247	0.05943
767.556	0.05953
767.864	0.05952
768.173	0.05955
768.481	0.05957
768.789	0.05966
769.098	0.05958
769.406	0.05955
769.714	0.05953
770.022	0.05946
770.33	0.05947
770.638	0.05951
770.946	0.05954
771.254	0.05951
771.562	0.05941
771.87	0.05926
772.178	0.05923
772.486	0.05929
772.793	0.0592
773.101	0.059
773.408	0.05888
773.716	0.05873
774.023	0.05866
774.331	0.05854
774.638	0.05855
774.946	0.05859
775.253	0.05856
775.56	0.05852
775.867	0.0584
776.174	0.05821
776.481	0.05808
776.788	0.05785
777.095	0.05768
777.402	0.05748
777.709	0.05729
778.016	0.05704
778.323	0.0569
778.63	0.05672
778.936	0.05642
779.243	0.05624
779.549	0.05608
779.856	0.05587
780.162	0.05581
780.469	0.05562
780.775	0.05526
781.082	0.05491
781.388	0.05461
781.694	0.05435
782	0.05405
782.306	0.05395
782.612	0.05378
782.918	0.05369
783.224	0.05349
783.53	0.05329
783.836	0.05299
784.142	0.05285
784.448	0.05277
784.753	0.05258
785.059	0.05237
785.365	0.05209
785.67	0.05195
785.976	0.05167
786.281	0.05139
786.586	0.05097
786.892	0.05061
787.197	0.05053
787.502	0.0504
787.808	0.05013
788.113	0.04972
788.418	0.04941
788.723	0.04911
789.028	0.04887
789.333	0.04849
789.638	0.04823
789.942	0.0478
790.247	0.04759
790.552	0.04723
790.857	0.04676
791.161	0.04637
791.466	0.04602
791.77	0.04574
792.075	0.04532
792.379	0.04504
792.684	0.04476
792.988	0.04444
793.292	0.04418
793.597	0.04386
793.901	0.04349
794.205	0.04323
794.509	0.043
794.813	0.04252
795.117	0.04192
795.421	0.0415
795.725	0.0411
796.029	0.04063
796.332	0.04021
796.636	0.0397
796.94	0.03921
797.243	0.03881
797.547	0.03831
797.85	0.03793
798.154	0.03753
798.457	0.03705
798.761	0.03655
799.064	0.03607
799.367	0.03566
799.67	0.0352
799.973	0.03468
800.277	0.0341
800.58	0.03362
800.883	0.03314
801.186	0.03288
801.488	0.03265
801.791	0.03223
802.094	0.03159
802.397	0.03105
802.699	0.03069
803.002	0.03038
803.305	0.02994
803.607	0.02947
803.91	0.02911
804.212	0.02847
804.515	0.02796
804.817	0.02759
805.119	0.02716
805.421	0.02667
805.724	0.02602
806.026	0.0254
806.328	0.0247
806.63	0.02415
806.932	0.02336
807.234	0.02257
807.535	0.02194
807.837	0.02116
808.139	0.02057
808.441	0.02007
808.742	0.01949
809.044	0.01861
809.346	0.01774
809.647	0.01698
809.948	0.01608
810.25	0.01517
810.551	0.0144
810.853	0.01348
811.154	0.01261
811.455	0.01159
811.756	0.01067
812.057	0.00996
812.358	0.00916
812.659	0.00836
812.96	0.00743
813.261	0.00664
813.562	0.0058
813.863	0.00478
814.163	0.00394
814.464	0.00305
814.765	0.00205
815.065	0.00109
815.366	0.00028
815.666	-0.00058
815.967	-0.00147
816.267	-0.00258
816.567	-0.0036
816.868	-0.00457
817.168	-0.00554
817.468	-0.00686
817.768	-0.00786
818.068	-0.00896
818.368	-0.01021
818.668	-0.01153
818.968	-0.01258
819.268	-0.01363
819.568	-0.01494
819.867	-0.01632
820.167	-0.01764
820.467	-0.01917
820.766	-0.02071
821.066	-0.02212
821.365	-0.02358
821.665	-0.02509
821.964	-0.02663
822.263	-0.02828
822.563	-0.02952
822.862	-0.03107
823.161	-0.03273
823.46	-0.03429
823.759	-0.03583
824.058	-0.03762
824.357	-0.03948
824.656	-0.04141
824.955	-0.04342
825.254	-0.04559
825.552	-0.04786
825.851	-0.05014
826.15	-0.05207
826.448	-0.05436
826.747	-0.05674
827.045	-0.05908
827.344	-0.06146
827.642	-0.06427
827.941	-0.06693
828.239	-0.06927
828.537	-0.07206
828.835	-0.07509
829.133	-0.07796
829.432	-0.08107
829.73	-0.08446
830.028	-0.08742
830.325	-0.09022
830.623	-0.0935
830.921	-0.09695
831.219	-0.10046
831.517	-0.10449
831.814	-0.10838
832.112	-0.11171
832.409	-0.11584
832.707	-0.12037
833.004	-0.12513
833.302	-0.13036
833.599	-0.13578
833.896	-0.1405
834.194	-0.14525
834.491	-0.15157
834.788	-0.15778
835.085	-0.16388
835.382	-0.17055
835.679	-0.17659
835.976	-0.18298
836.273	-0.19101
836.57	-0.19965
836.866	-0.20877
837.163	-0.21785
837.46	-0.22662
837.756	-0.23549
838.053	-0.24503
838.349	-0.25677
838.646	-0.26843
838.942	-0.27979
839.239	-0.29117
839.535	-0.30283
839.831	-0.31571
840.127	-0.33069
840.423	-0.34887
840.72	-0.36671
841.016	-0.38626
841.312	-0.40642
841.607	-0.4288
841.903	-0.45573
842.199	-0.48545
842.495	-0.51621
842.791	-0.55303
843.086	-0.59036
843.382	-0.63395
843.677	-0.68937
843.973	-0.76036
844.268	-0.84825
844.564	-0.96164
844.859	-1.12772
845.154	-1.41585
845.45	-2.91413
845.745	-0
846.04	-0
846.335	-0
846.63	-0
846.925	-0
847.22	-0
847.515	-0
847.81	-0
848.104	-0
848.399	-0
848.694	-0
848.988	-0
849.283	-0
849.578	-0
849.872	-0
850.166	-0
850.461	-0
850.755	-0
851.049	-0
851.343	-0
851.638	-0
851.932	-0
852.226	-0
852.52	-0
852.814	-0
853.107	-0
853.401	-0
853.695	-0
853.989	-0
854.282	-0
854.576	-0
854.869	-0
855.163	-0
855.456	-0
855.75	-0
856.043	-0
856.336	-0
856.63	-0
856.923	-0
857.216	-0
857.509	-0
857.802	-0
858.095	-0
858.388	-0
858.681	-0
858.974	-0
859.266	-0
859.559	-0
859.852	-0
860.144	-0
860.437	-0
860.729	-0
861.022	-0
861.314	-0
861.606	-0
861.899	-0
862.191	-0
862.483	-0
862.775	-0
863.067	-0
863.359	-0
863.651	-0
863.943	-0
864.235	-0
864.527	-0
864.819	-0
865.11	-0
865.402	-0
865.693	-0
865.985	-0
866.276	-0
866.568	-0
866.859	-0
867.151	-0
867.442	-0
867.733	-0
868.024	-0
868.315	-0
868.606	-0
868.897	-0
869.188	-0
869.479	-0
869.77	-0
870.061	-0
870.351	-0
870.642	-0
870.933	-0
871.223	-0
871.514	-0
871.804	-0
872.095	-0
872.385	-0
872.675	-0
